# Инициализация MPU6050...
# MPU6050 OK
# Держите неподвижно. Калибровка гиро... 5 сек
# Держите неподвижно... 4 сек
# Держите неподвижно... 3 сек
# Держите неподвижно... 2 сек
# Держите неподвижно... 1 сек
# Держите неподвижно... 0 сек
# Калибровка гиро завершена.
# DMP готов. Начинайте движение.
# Ожидание фиксации ГНСС...
time_ms,lat,lon,ax,ay,az,gx,gy,gz,roll_deg,pitch_deg,yaw_deg
5577,nan,nan,2.090138,0.746991,8.814254,0.224242,1.084035,0.039854
5677,nan,nan,2.154782,0.773327,9.038112,0.001358,2.021458,0.076977
5777,nan,nan,2.152387,0.751779,9.065645,-0.241868,2.882275,0.132196
5877,nan,nan,2.157176,0.744597,9.085996,-0.484499,3.687353,0.197922
5977,nan,nan,2.155979,0.749385,9.058463,-0.642448,4.429814,0.270569
6077,nan,nan,2.157176,0.738611,9.087193,-0.778934,5.116459,0.344074
6177,nan,nan,2.160767,0.744597,9.059659,-0.928403,5.768755,0.433908
6277,nan,nan,2.151190,0.775721,9.045294,-1.070058,6.365403,0.531758
6377,nan,nan,2.154782,0.745794,9.089588,-1.225327,6.927372,0.631783
6477,nan,nan,2.155979,0.738611,9.087193,-1.323449,7.440060,0.736212
6577,nan,nan,2.153584,0.738611,9.083601,-1.417794,7.919007,0.890742
6677,nan,nan,2.158373,0.746991,9.072828,-1.514481,8.362754,1.003641
6777,nan,nan,2.155979,0.741005,9.102755,-1.575014,8.771653,1.121407
6877,nan,nan,2.153584,0.746991,9.087193,-1.662664,9.159487,1.248624
6977,nan,nan,2.149993,0.790087,9.063251,-1.735970,9.513061,1.375208
7077,nan,nan,2.155979,0.755371,9.063251,-1.850623,9.845755,1.512561
7177,nan,nan,2.159570,0.766144,9.059659,-1.901287,10.157128,1.644850
7301,55.590820,37.672737,2.154782,0.757765,9.056068,-1.997325,10.526660,1.819256
7401,55.590820,37.672737,2.145205,0.750582,9.068039,-2.034050,10.760755,1.942551
7501,55.590820,37.672737,2.154782,0.748188,9.080011,-2.090297,11.003032,2.082878
7601,55.590820,37.672737,2.158373,0.746991,9.080011,-2.124873,11.230540,2.220906
7701,55.590820,37.672737,2.158373,0.762553,9.077616,-2.158711,11.438048,2.366360
7801,55.590820,37.672737,2.149993,0.748188,9.058463,-2.192206,11.631021,2.511389
7901,55.590820,37.672737,2.159570,0.764947,9.059659,-2.211315,11.809918,2.654967
8001,55.590820,37.672737,2.149993,0.757765,9.052477,-2.265694,11.982519,2.802257
8101,55.590820,37.672737,2.157176,0.762553,9.065645,-2.305142,12.134239,2.955019
8201,55.590820,37.672737,2.157176,0.754173,9.064448,-2.344392,12.279099,3.107882
8301,55.590820,37.672737,2.148796,0.742202,9.060856,-2.383338,12.416342,3.260205
8401,55.590820,37.672737,2.155979,0.742202,9.056068,-2.401062,12.540067,3.410762
8501,55.590820,37.672737,2.147599,0.758962,9.059659,-2.418530,12.656118,3.560653
8601,55.590820,37.672737,2.153584,0.738611,9.068039,-2.449472,12.766507,3.719849
8701,55.590820,37.672737,2.164358,0.743400,9.088390,-2.452506,12.868397,3.868128
8801,55.590820,37.672737,2.157176,0.739808,9.082405,-2.483174,12.964223,4.026537
8901,55.590820,37.672737,2.149993,0.751779,9.072828,-2.499553,13.052784,4.183324
9001,55.590820,37.672737,2.161964,0.748188,9.059659,-2.521315,13.142645,4.356036
9101,55.590820,37.672737,2.153584,0.749385,9.082405,-2.525162,13.208977,4.495848
9201,55.590820,37.672737,2.151190,0.756568,9.064448,-2.539805,13.284824,4.667635
9339,55.590820,37.672737,nan,nan,nan,nan,nan,nan
9439,55.590820,37.672737,2.158373,0.749385,9.072828,-2.586473,13.429301,5.040311
9539,55.590820,37.672737,2.167950,0.738611,9.077616,-2.609705,13.490599,5.197674
9639,55.590820,37.672737,2.155979,0.730232,9.063251,-2.625742,13.535717,5.295315
9739,55.590820,37.672737,2.155979,0.756568,9.066843,-2.658097,13.575022,5.381219
9839,55.590820,37.672737,2.122460,0.714669,9.063251,-2.854179,13.588723,5.129282
9939,55.590820,37.672737,2.146402,0.708684,9.057266,-2.912181,13.627289,5.181152
10039,55.590820,37.672737,2.164358,0.703895,9.070433,-2.927954,13.668075,5.344456
10139,55.590820,37.672737,2.159570,0.691924,9.054871,-2.940658,13.707080,5.470458
10240,55.590820,37.672737,2.111686,0.720655,9.078813,-2.989129,13.730691,5.484895
10340,55.590820,37.672737,2.153584,0.689530,9.082405,-3.017240,13.754829,5.547426
10440,55.590820,37.672737,2.165555,0.683545,9.064448,-3.018299,13.794406,5.708150
10540,55.590820,37.672737,2.166753,0.683545,9.083601,-3.026830,13.828180,5.870557
10640,55.590820,37.672737,2.169147,0.687136,9.069236,-3.021711,13.860400,6.023138
10740,55.590820,37.672737,2.176329,0.755371,9.078813,-2.986376,13.903202,6.304268
10840,55.590820,37.672737,2.169147,0.695516,9.059659,-2.639142,13.977464,7.463050
10940,55.590820,37.672737,-35.410243,37.027526,27.074829,-41.297443,-6.724255,162.689407
11040,55.590820,37.672737,2.088941,0.873884,9.056068,-1.703052,14.092837,10.126233
11140,55.590820,37.672737,2.073379,0.893037,9.066843,-1.623720,14.093657,10.712732
11240,55.590820,37.672737,2.081758,0.882263,9.059659,-1.646228,14.082118,11.012999
11353,55.590820,37.672737,2.098518,0.888249,9.082405,-1.689805,14.060660,11.146189
11453,55.590820,37.672737,2.091335,0.873884,9.071631,-1.755960,14.048887,11.269951
11553,55.590820,37.672737,2.114080,0.857124,9.069236,-1.850218,14.027622,11.227571
11653,55.590820,37.672737,2.103306,0.853533,9.064448,-1.861213,14.011839,11.387608
11753,55.590820,37.672737,2.183512,0.841562,9.071631,-1.848085,14.016683,11.611420
11853,55.590820,37.672737,2.076970,0.881066,9.082405,-2.118030,13.995435,11.022137
11953,55.590820,37.672737,1.952471,1.091756,9.044097,-2.777520,13.785436,8.747668
12053,55.590820,37.672737,2.328361,0.448913,9.088390,-3.216448,13.786049,7.566768
12153,55.590820,37.672737,2.064999,0.912191,9.065645,-3.304345,13.731406,7.276785
12253,55.590820,37.672737,1.715445,0.672771,9.057266,-3.746418,13.608440,6.221158
12353,55.590820,37.672737,2.622848,0.112527,9.129092,-4.372625,13.720563,4.775987
12453,55.590820,37.672737,2.250550,0.502782,9.076419,-4.323829,13.782174,4.933337
12553,55.590820,37.672737,2.220622,0.495600,9.099164,-4.297065,13.853037,5.143926
12653,55.590820,37.672737,2.221819,0.507571,9.060856,-4.276646,13.900549,5.302919
12753,55.590820,37.672737,2.286463,0.518345,9.069236,-4.346317,13.938496,5.320558
12853,55.590820,37.672737,2.220622,0.496797,9.087193,-4.361678,13.988040,5.484639
12953,55.590820,37.672737,2.226608,0.478840,9.088390,-4.397697,14.031633,5.657961
13053,55.590820,37.672737,2.229002,0.474052,9.078813,-4.439979,14.104161,5.834484
13153,55.590820,37.672737,2.419341,0.514753,9.063251,-4.770388,14.369792,5.876689
13283,55.590820,37.672737,nan,nan,nan,nan,nan,nan
13383,55.590820,37.672737,2.308010,0.379481,9.074025,-4.920580,14.582591,6.264645
13483,55.590820,37.672737,2.330755,0.353145,9.056068,-4.982903,14.670606,6.445146
13583,55.590820,37.672737,2.205060,0.307655,9.050083,-5.100780,14.759072,6.588989
13683,55.590820,37.672737,2.339135,0.350751,9.059659,-5.146951,14.821146,6.671923
13783,55.590820,37.672737,2.330755,0.360327,9.071631,-5.160388,14.858266,6.843152
13883,55.590820,37.672737,2.360683,0.332794,9.070433,-5.131952,14.865986,7.008005
13983,55.590820,37.672737,2.333150,0.345962,9.065645,-5.089244,14.857343,7.167732
14083,55.590820,37.672737,2.288857,0.357933,9.081208,-5.004883,14.839162,7.432386
14183,55.590820,37.672737,2.298434,0.386664,9.042901,-4.833292,14.682451,7.558116
14283,55.590820,37.672737,2.185906,0.493206,9.060856,-4.583572,14.503041,7.738702
14383,55.590820,37.672737,2.391808,0.320823,9.062054,-4.831265,14.817246,8.163552
14483,55.590820,37.672737,2.308010,0.421379,9.047689,-4.896100,14.971961,8.683132
14583,55.590820,37.672737,2.279280,0.386664,9.059659,-4.950284,15.036321,8.920388
14683,55.590820,37.672737,2.306813,0.385467,9.060856,-4.963091,15.066506,9.090847
14783,55.590820,37.672737,2.286463,0.390255,9.107543,-4.974647,15.104805,9.270444
14883,55.590820,37.672737,2.384625,0.375890,9.058463,-4.922179,15.102578,9.561808
14983,55.590820,37.672737,2.258929,0.393846,9.046491,-4.867044,15.065725,9.884390
15083,55.590820,37.672737,2.286463,0.398635,9.054871,-4.708086,14.884881,10.000664
15183,55.590820,37.672737,nan,nan,nan,nan,nan,nan
15283,55.590820,37.672737,nan,nan,nan,nan,nan,nan
15383,55.590820,37.672737,2.227805,0.480037,9.132683,-4.258691,14.561366,10.355713
15483,55.590820,37.672737,2.181118,0.539892,9.103953,-4.007980,14.558588,10.551408
15583,55.590820,37.672737,2.102109,0.690727,9.074025,-3.592217,14.562726,10.897011
15683,55.590820,37.672737,2.208651,0.563834,9.087193,-3.730880,14.571441,11.181058
15783,55.590820,37.672737,2.218228,0.538695,9.072828,-3.730203,14.569998,11.305004
15883,55.590820,37.672737,2.292448,0.598550,9.068039,-3.620707,14.586347,11.583174
15983,55.590820,37.672737,2.205060,0.588974,9.078813,-3.613428,14.577275,11.879251
16083,55.590820,37.672737,1.983596,0.802058,9.054871,-3.098503,14.631513,12.626116
16183,55.590820,37.672737,2.226608,0.645237,9.077616,-3.212796,14.585227,12.618792
16283,55.590820,37.672737,2.200271,0.659603,9.085996,-3.241605,14.576988,12.861843
16384,55.590820,37.672737,1.968034,0.835576,9.084799,-3.388886,14.525901,13.001831
16484,55.590820,37.672737,2.343924,0.374693,9.102755,-3.903821,14.525606,12.680202
16584,55.590820,37.672737,2.215834,0.531513,9.076419,-3.928447,14.513926,12.840416
16684,55.590820,37.672737,2.274492,0.472855,9.068039,-4.244946,14.859836,13.112226
16784,55.590820,37.672737,2.313996,0.450110,9.038112,-4.385474,15.009095,13.288736
16884,55.590820,37.672737,2.313996,0.438139,9.057266,-4.431735,15.058063,13.466438
16984,55.590820,37.672737,2.333150,0.567426,9.056068,-4.389975,15.027625,13.639932
17084,55.590820,37.672737,2.268506,0.471658,9.066843,-4.429980,15.071021,13.865337
17184,55.590820,37.672737,2.264915,0.495600,9.077616,-4.366961,15.027618,14.100964
17328,55.590820,37.672737,nan,nan,nan,nan,nan,nan
17428,55.590820,37.672737,2.358289,0.480037,9.048886,-4.509573,15.194136,14.576651
17528,55.590820,37.672737,2.286463,0.463278,9.064448,-4.454975,15.141431,14.753829
17628,55.590820,37.672737,2.331953,0.448913,9.066843,-4.389536,15.088399,14.957574
17728,55.590820,37.672737,2.209848,0.515950,9.085996,-4.222557,14.930819,15.126362
17828,55.590820,37.672737,2.098518,0.603339,9.097967,-4.270355,14.906792,15.112447
17928,55.590820,37.672737,2.479196,0.247800,9.059659,-4.717000,15.204839,14.888764
18028,55.590820,37.672737,2.363077,0.393846,9.041703,-4.664253,15.168537,15.097225
18128,55.590820,37.672737,2.284068,0.439336,9.081208,-4.611648,15.137799,15.296244
18228,55.590820,37.672737,2.430115,0.356736,9.085996,-4.520336,15.084122,15.534406
18328,55.590820,37.672737,2.182315,0.536301,9.089588,-4.366533,15.036809,16.029205
18428,55.590820,37.672737,2.287660,0.471658,9.057266,-4.407695,15.081593,16.242191
18528,55.590820,37.672737,2.309207,0.451307,9.052477,-4.387360,15.067299,16.412805
18628,55.590820,37.672737,2.309207,0.462081,9.046491,-4.407075,15.078797,16.588270
18728,55.590820,37.672737,2.370260,0.397438,9.062054,-4.577070,15.238528,16.668842
18828,55.590820,37.672737,2.335544,0.420182,9.042901,-4.562653,15.225451,16.846586
18928,55.590820,37.672737,2.264915,0.494403,9.081208,-4.416543,15.115929,17.109409
19028,55.590820,37.672737,2.302025,0.464475,9.083601,-4.447703,15.157675,17.283626
19128,55.590820,37.672737,2.284068,0.482432,9.066843,-4.467374,15.177069,17.455360
19228,55.590820,37.672737,nan,nan,nan,nan,nan,nan
19328,55.590820,37.672737,nan,nan,nan,nan,nan,nan
19428,55.590820,37.672737,2.328361,0.451307,9.071631,-4.680906,15.407604,18.027011
19528,55.590820,37.672737,2.808399,0.019154,8.969877,-4.168908,14.846621,18.093521
19628,55.590820,37.672737,2.112883,0.470461,9.150639,-3.940648,14.491649,18.118431
19728,55.590820,37.672737,2.354697,0.859518,9.080011,-3.972616,14.533641,17.756244
19828,55.590820,37.672737,2.187103,0.606930,9.147048,-3.575392,14.676560,19.316415
19928,55.590820,37.672737,2.148796,0.642843,9.054871,-3.051683,14.757460,21.048366
20028,55.590820,37.672737,2.293645,0.656011,9.076419,-2.607914,14.834124,22.645828
20128,55.590820,37.672737,2.203863,0.791284,9.066843,-2.085770,14.868741,24.488384
20228,55.590820,37.672737,2.067393,0.788889,9.068039,-1.892310,14.807049,25.284448
20328,55.590820,37.672737,2.114080,0.833182,9.068039,-1.890202,14.735407,25.469715
20428,55.590820,37.672737,2.122460,0.842759,9.082405,-1.888457,14.684494,25.624261
20528,55.590820,37.672737,2.117671,0.853533,9.071631,-1.892940,14.634967,25.785408
20628,55.590820,37.672737,2.118869,0.843956,9.075222,-1.912417,14.589376,25.945817
20728,55.590820,37.672737,2.120066,0.845153,9.070433,-1.906493,14.558813,26.100727
20828,55.590820,37.672737,2.118869,0.839168,9.045294,-1.923824,14.519093,26.262598
20928,55.590820,37.672737,2.116474,0.846350,9.044097,-1.912567,14.481140,26.421148
21028,55.590820,37.672737,2.126051,0.834379,9.051280,-1.929472,14.448330,26.576732
21128,55.590820,37.672737,2.122460,0.835576,9.065645,-1.929921,14.420089,26.742431
21228,55.590820,37.672737,nan,nan,nan,nan,nan,nan
21328,55.590820,37.672737,nan,nan,nan,nan,nan,nan
21428,55.590820,37.672737,2.117671,0.851139,9.054871,-1.926414,14.310555,27.202520
21528,55.590820,37.672737,2.110489,0.872686,9.065645,-1.959637,14.282708,27.221349
21628,55.590820,37.672737,2.120066,0.854730,9.082405,-1.959785,14.261353,27.380529
21728,55.590820,37.672737,2.117671,0.845153,9.062054,-1.966968,14.241572,27.540016
21828,55.590820,37.672737,2.126051,0.836773,9.062054,-1.986516,14.231728,27.700511
21928,55.590820,37.672737,2.132037,0.828394,9.054871,-1.999123,14.220347,27.860406
22028,55.590820,37.672737,2.122460,0.837971,9.058463,-1.997830,14.205800,28.019281
22128,55.590820,37.672737,2.123657,0.839168,9.046491,-2.013824,14.180966,28.178279
22228,55.590820,37.672737,2.122460,0.833182,9.069236,-2.028218,14.162923,28.337390
22328,55.590820,37.672737,2.118869,0.836773,9.059659,-2.027069,14.148412,28.495809
22428,55.590820,37.672737,2.122460,0.834379,9.069236,-2.025961,14.133895,28.654069
22528,55.590820,37.672737,2.124854,0.831985,9.064448,-2.031847,14.121023,28.812582
22628,55.590820,37.672737,2.120066,0.826000,9.054871,-2.038569,14.109118,28.970062
22728,55.590820,37.672737,2.123657,0.831985,9.054871,-2.053189,14.091206,29.128372
22828,55.590820,37.672737,2.121263,0.829591,9.078813,-2.080020,14.083418,29.287555
22928,55.590820,37.672737,2.160767,0.768539,9.085996,-2.208058,14.059797,29.197732
23028,55.590820,37.672737,2.173935,0.756568,9.074025,-2.357740,14.025509,28.944440
23128,55.590820,37.672737,2.160767,0.647632,9.057266,-2.997419,14.333671,28.769433
23228,55.590820,37.672737,2.175132,0.606930,9.012972,-3.223933,14.382848,28.948553
23348,55.590820,37.672737,2.100912,0.666785,9.028535,-3.843702,13.576377,29.099008
23448,55.590820,37.672737,1.957260,0.611719,9.082405,-3.566730,13.033373,29.063024
23548,55.590820,37.672737,1.954866,0.605733,9.081208,-3.387123,12.744620,29.168460
23648,55.590820,37.672737,1.884237,0.661997,9.138669,-3.056261,12.456343,29.317823
23748,55.590820,37.672737,1.875857,0.676362,9.089588,-2.863002,12.363429,29.408170
23848,55.590820,37.672737,1.863886,0.745794,9.109938,-2.517098,12.405478,29.512279
23948,55.590820,37.672737,1.854309,0.737414,9.064448,-2.500130,12.392708,29.633214
24048,55.590820,37.672737,1.837550,0.764947,9.047689,-2.586076,12.477293,29.743215
24148,55.590820,37.672737,1.990779,0.672771,8.971075,-3.203748,13.864132,29.890094
24248,55.590820,37.672737,2.303222,0.575805,9.144654,-3.582984,15.083893,30.726583
24348,55.590820,37.672737,2.472013,0.568623,9.047689,-3.518889,16.247703,31.232448
24448,55.590820,37.672737,2.669535,0.633266,8.906431,-3.450960,17.325523,31.622058
24548,55.590820,37.672737,2.734178,0.555455,9.005790,-3.375380,17.696472,32.032485
24648,55.590820,37.672737,2.614468,0.752976,9.234436,-2.198826,17.666101,32.342338
24748,55.590820,37.672737,2.476802,0.876278,8.669404,-1.091375,16.260433,30.467012
24848,55.590820,37.672737,2.686294,1.091756,9.192538,0.149061,15.563341,28.312026
24948,55.590820,37.672737,2.612074,1.681927,8.783129,5.618354,15.254496,26.663549
25048,55.590820,37.672737,2.454057,2.549825,8.068460,11.425313,14.927145,26.079170
25148,55.590820,37.672737,2.102109,3.165135,8.101979,12.588212,14.674143,27.008852
25290,55.590820,37.672737,2.190695,3.179500,8.355765,12.408088,14.408772,26.996952
25390,55.590820,37.672737,2.324770,3.066972,8.601170,11.886756,14.360640,27.073364
25490,55.590820,37.672737,2.179921,3.068170,8.463503,10.818476,14.492424,27.511289
25590,55.590820,37.672737,2.400187,2.460042,9.002199,5.731875,14.751157,28.046983
25690,55.590820,37.672737,2.142811,1.448492,8.813056,-1.416082,15.245455,28.335474
25790,55.590820,37.672737,2.439692,0.328006,9.423579,-6.224868,14.593478,28.067935
25890,55.590820,37.672737,2.276886,-0.117316,8.889672,-7.759889,14.574428,28.189704
25990,55.590820,37.672737,2.267309,-0.408211,9.206903,-10.008440,14.255259,28.067935
26090,55.590820,37.672737,2.213439,-0.575805,9.296686,-10.987390,14.119030,28.261476
26190,55.590820,37.672737,2.280477,-0.551863,9.291897,-10.494215,13.810462,28.406364
26290,55.590820,37.672737,2.212242,-0.494403,9.314642,-9.314074,13.877885,28.841079
26390,55.590820,37.672737,2.073379,-0.228646,9.114727,-7.190952,13.576085,29.147998
26490,55.590820,37.672737,2.087744,0.213084,9.394848,-5.812383,13.493547,29.035703
26590,55.590820,37.672737,2.170344,0.410606,8.921993,-3.242786,13.211483,28.749494
26690,55.590820,37.672737,1.720234,1.134852,8.898051,0.135728,12.467523,28.503820
26790,55.590820,37.672737,1.977611,1.440112,9.245210,1.002101,12.516788,28.145429
26890,55.590820,37.672737,1.945289,1.403002,9.015367,1.357556,12.669277,28.145187
26990,55.590820,37.672737,2.047042,1.395820,9.035717,1.647653,12.837144,28.058887
27090,55.590820,37.672737,2.030283,1.436521,9.063251,1.582187,13.050017,28.691164
27190,55.590820,37.672737,1.952471,1.599327,8.965088,1.728639,13.392100,30.172950
27331,55.590816,37.672737,nan,nan,nan,nan,nan,nan
27431,55.590816,37.672737,1.885434,1.294066,8.677784,0.859040,11.988243,31.528049
27531,55.590816,37.672737,1.625663,1.064223,9.220071,-1.639121,11.296143,32.300079
27631,55.590816,37.672737,1.515530,0.677559,8.995017,-2.491364,10.884023,32.865097
27731,55.590816,37.672737,1.537077,0.446519,9.202115,-4.114622,10.806464,33.141239
27831,55.590816,37.672737,1.859098,0.730232,9.427169,-2.978477,12.820072,33.603916
27931,55.590816,37.672737,2.045845,0.802058,9.249999,-2.860682,14.630951,34.635341
28032,55.590816,37.672737,2.244564,0.689530,9.100361,-2.626447,14.489197,35.098548
28132,55.590816,37.672737,2.412158,0.427365,8.924387,-3.518152,15.396306,35.985980
28232,55.590816,37.672737,2.047042,0.903811,9.072828,-3.178349,15.173565,36.558475
28332,55.590816,37.672737,1.831564,0.750582,9.094376,-2.754325,14.724536,36.609897
28432,55.590816,37.672737,2.679112,0.196325,9.032126,-3.136950,14.871927,36.397609
28532,55.590816,37.672737,1.446098,2.252944,10.087969,-2.167372,13.804228,37.519485
28632,55.590816,37.672737,1.783680,0.411803,8.682573,0.715885,10.801389,37.895164
28732,55.590816,37.672737,0.507571,1.547851,9.224860,1.436054,10.377857,37.263381
28832,55.590816,37.672737,1.769315,1.013944,10.267535,2.458501,9.845304,36.080001
28932,55.590816,37.672737,-0.191536,2.371457,9.677364,4.336681,7.629631,34.428886
29032,55.590816,37.672737,0.272939,2.506729,11.225215,5.066204,5.035406,32.479682
29132,55.590816,37.672737,0.469264,3.179500,10.510546,7.358279,4.394917,28.981067
29232,55.590816,37.672737,nan,nan,nan,nan,nan,nan
29332,55.590816,37.672737,nan,nan,nan,nan,nan,nan
29432,55.590816,37.672737,0.384269,4.098873,6.813898,15.867402,2.143373,9.042972
29532,55.590816,37.672737,0.755371,4.062960,7.068881,19.149147,1.646801,-1.658785
29632,55.590816,37.672737,-0.083797,4.638766,6.387730,22.439689,1.181313,-11.137763
29732,55.590816,37.672737,0.213084,4.410120,6.423643,23.998273,0.522208,-21.048742
29832,55.590816,37.672737,0.774524,4.812345,7.855376,25.468166,0.390987,-30.748666
29932,55.590816,37.672737,0.726640,5.286397,7.217321,27.965187,0.797596,-39.345775
30032,55.590816,37.672737,1.243788,4.740520,7.692570,30.166126,2.001491,-47.890132
30132,55.590816,37.672737,1.539472,3.866636,8.544906,30.287105,3.019906,-55.425971
30232,55.590816,37.672737,1.634043,4.013879,8.482657,30.227588,2.696708,-63.127166
30332,55.590816,37.672737,1.084573,4.349067,8.762779,31.080394,1.963465,-69.610916
30432,55.590816,37.672737,1.015141,4.787206,7.772776,33.118091,1.128949,-74.515258
30532,55.590816,37.672737,2.006341,4.801571,8.049306,33.026447,1.902998,-79.011268
30632,55.590816,37.672737,2.093729,5.073313,7.368156,32.975345,3.281587,-83.241607
30732,55.590816,37.672737,2.207454,5.273229,6.907272,33.167137,4.003955,-88.323913
30832,55.590816,37.672737,2.616863,5.333084,8.590396,33.130802,3.844639,-93.524009
30932,55.590816,37.672737,0.635661,7.376535,7.838616,35.544479,3.687448,-97.946189
31032,55.590816,37.672737,0.950498,7.275979,6.655881,35.923755,3.387270,-105.707878
31132,55.590816,37.672737,0.961272,5.173870,6.520608,33.828208,2.651320,-111.887443
31232,55.590816,37.672737,nan,nan,nan,nan,nan,nan
31332,55.590824,37.672744,nan,nan,nan,nan,nan,nan
31432,55.590824,37.672744,1.705869,4.954801,8.246829,25.560352,5.877151,-117.782791
31532,55.590824,37.672744,2.069787,4.467580,9.424776,24.113733,6.485671,-117.691490
31632,55.590824,37.672744,1.985990,3.404555,9.520544,22.894454,7.136156,-115.092903
31732,55.590824,37.672744,0.306458,3.453636,6.797139,21.998683,6.045660,-110.860404
31832,55.590824,37.672744,1.258153,2.686294,7.303512,19.957378,3.870996,-108.656173
31932,55.590824,37.672744,1.473631,2.723404,6.530185,21.987632,1.992845,-105.881637
32032,55.590824,37.672744,1.628057,4.131195,9.312248,22.647701,2.933050,-103.365798
32132,55.590824,37.672744,0.633266,4.778827,9.059659,23.079704,1.792924,-102.236053
32232,55.590824,37.672744,-0.019154,5.440824,9.569624,22.141891,1.230430,-100.922706
32332,55.590824,37.672744,-1.104924,4.730943,8.732851,19.009084,-0.667425,-98.212455
32432,55.590824,37.672744,-0.653617,2.280477,6.807912,15.968715,-1.944951,-94.698272
32532,55.590824,37.672744,-0.793678,2.610877,7.048530,13.860448,0.399308,-87.266716
32632,55.590824,37.672744,-0.738611,3.532644,8.638280,13.348784,0.847767,-77.641921
32732,55.590824,37.672744,-1.094150,3.632004,9.965865,12.856371,1.774891,-66.339126
32832,55.590824,37.672744,-1.612495,2.693477,12.249934,14.430887,-1.403410,-54.250518
32932,55.590824,37.672744,-0.622492,2.756923,8.471883,18.192844,-2.647600,-43.326438
33032,55.590824,37.672744,-0.526724,3.623624,6.348226,15.387249,-3.518189,-37.660274
33132,55.590824,37.672744,-1.592144,4.335899,4.966772,10.234836,-1.343438,-32.556812
33236,55.590824,37.672744,nan,nan,nan,nan,nan,nan
33336,55.590835,37.672763,1.452083,1.161188,9.725248,1.603990,7.139742,-43.742752
33436,55.590835,37.672763,-0.529119,-1.055843,11.791444,-5.285413,5.905642,-51.663322
33536,55.590835,37.672763,-0.240617,-1.010353,8.658631,-11.701783,9.726361,-61.153179
33636,55.590835,37.672763,1.046266,-1.194707,8.724472,-10.332510,5.382506,-67.005584
33736,55.590835,37.672763,0.990002,-0.931344,7.769185,-11.460970,4.636003,-73.253677
33836,55.590835,37.672763,0.580594,-0.624887,8.949526,-10.893183,2.128063,-76.884635
33936,55.590835,37.672763,0.889446,-0.496797,9.963471,-8.569260,2.686446,-80.238327
34036,55.590835,37.672763,0.791284,-0.489614,10.741586,-5.525054,3.686333,-79.745124
34136,55.590835,37.672763,0.918176,-0.978031,9.914390,-4.971712,3.652597,-77.791824
34236,55.590835,37.672763,0.775721,-0.884657,8.716092,-7.600823,2.488521,-77.332809
34336,55.590835,37.672763,0.278924,-0.809240,7.909245,-10.842628,1.475700,-77.645561
34436,55.590835,37.672763,0.835576,-1.588553,8.409634,-12.586794,1.844471,-78.108230
34536,55.590835,37.672763,-0.027533,-1.468843,9.935937,-11.892693,1.458864,-80.506072
34636,55.590835,37.672763,0.401029,-1.262941,10.571599,-10.942288,0.576649,-82.610710
34736,55.590835,37.672763,-0.657208,-0.536301,9.666590,-10.513399,-1.094891,-84.911994
34836,55.590835,37.672763,-0.348356,0.126893,9.270349,-10.996394,-2.542111,-86.293418
34936,55.590835,37.672763,-0.031125,-0.086191,8.627507,-12.385581,-2.830620,-86.239585
35036,55.590835,37.672763,0.052672,-0.507571,8.588002,-12.808140,-1.644506,-85.103340
35136,55.590835,37.672763,-0.265756,-1.024718,9.504981,-11.599344,-0.127322,-82.636802
35241,55.590835,37.672763,0.135272,-0.451307,10.327389,-10.153497,2.608739,-78.353645
35382,55.590843,37.672782,0.433350,-0.990002,9.415199,-9.785257,3.484329,-70.699584
35482,55.590843,37.672782,-0.095768,-1.626860,8.957906,-10.209162,3.567952,-67.521095
35582,55.590843,37.672782,-0.512359,-1.264138,8.546103,-11.294737,3.549591,-64.736877
35682,55.590843,37.672782,-0.483629,-1.525106,8.507796,-12.120016,3.263051,-61.351104
35782,55.590843,37.672782,0.095768,-1.222240,8.932767,-11.943329,3.221776,-60.397212
35883,55.590843,37.672782,-0.679953,-0.280122,9.545682,-10.511444,1.528393,-61.810039
35983,55.590843,37.672782,-0.956484,0.432153,9.783905,-9.339919,-0.388521,-60.765274
36083,55.590843,37.672782,-0.675165,0.204704,9.247605,-9.689165,-1.395329,-59.392833
36183,55.590843,37.672782,-0.946907,0.192733,8.875307,-9.792868,-1.674266,-57.607322
36283,55.590843,37.672782,-1.335965,0.050278,9.221268,-9.281880,-2.094724,-54.931442
36383,55.590843,37.672782,-1.131260,0.111330,9.288306,-8.704060,-1.985992,-50.757198
36483,55.590843,37.672782,-0.893037,-0.131681,9.352950,-7.891993,-2.034211,-46.539810
36583,55.590843,37.672782,-1.169568,-0.226252,9.087193,-7.040833,-2.682528,-43.157955
36683,55.590843,37.672782,-0.556652,-0.733823,9.367315,-6.252606,-3.115195,-40.691139
36783,55.590843,37.672782,-0.568623,-0.812831,9.750387,-7.163445,-3.365489,-39.398544
36883,55.590843,37.672782,-0.221464,-0.746991,9.070433,-9.289507,-2.762546,-38.306838
36983,55.590843,37.672782,-0.657208,-1.140837,9.437944,-10.965070,-1.879700,-37.251647
37083,55.590843,37.672782,-1.084573,-0.878672,9.026141,-11.470494,-1.511413,-36.191505
37183,55.590843,37.672782,-0.572214,-0.659603,9.046491,-10.571572,-1.490014,-35.226985
37283,55.590843,37.672782,nan,nan,nan,nan,nan,nan
37383,55.590850,37.672790,-1.061828,-0.414197,9.190144,-9.271743,-3.259922,-34.963634
37483,55.590850,37.672790,-1.067814,-0.365116,9.203311,-9.146561,-3.489857,-35.378032
37583,55.590850,37.672790,-1.118092,-0.347159,9.269152,-9.896722,-3.331390,-35.464466
37683,55.590850,37.672790,-0.561440,-0.908600,9.266758,-11.406854,-2.239134,-34.945858
37783,55.590850,37.672790,-0.683545,-0.978031,9.103953,-12.694715,-1.154078,-34.121139
37883,55.590850,37.672790,-0.221464,-1.479617,9.103953,-13.197325,0.390804,-31.738422
37983,55.590850,37.672790,-0.088585,-1.380257,9.453506,-12.564043,1.777585,-28.646686
38083,55.590850,37.672790,-0.197522,-1.084573,9.493010,-12.188532,2.691743,-24.484622
38183,55.590850,37.672790,0.190339,-0.979228,8.957906,-12.638168,3.619852,-19.661815
38283,55.590850,37.672790,-0.015562,-0.940921,9.281124,-12.696511,4.024590,-15.426148
38383,55.590850,37.672790,-0.258574,-0.852336,9.127895,-13.228087,4.663325,-11.606397
38483,55.590850,37.672790,-0.099359,-0.809240,9.337388,-13.411000,5.314105,-8.323437
38583,55.590850,37.672790,0.314838,-0.849942,9.282320,-13.575139,5.860538,-5.886588
38683,55.590850,37.672790,0.105345,-0.997185,9.148245,-13.717347,5.971861,-4.429144
38784,55.590850,37.672790,0.070629,-0.957681,9.192538,-13.534610,5.877200,-3.612982
38884,55.590850,37.672790,0.316035,-0.896629,9.185356,-13.340254,5.582174,-3.268955
38984,55.590850,37.672790,0.211887,-1.024718,9.236830,-13.379225,5.165023,-3.532969
39084,55.590850,37.672790,0.123301,-1.108515,9.296686,-13.499298,4.539275,-3.843330
39185,55.590850,37.672790,nan,nan,nan,nan,nan,nan
39285,55.590850,37.672790,nan,nan,nan,nan,nan,nan
39385,55.590850,37.672790,0.064643,-1.132457,9.294291,-13.661913,3.350700,-5.297179
39485,55.590850,37.672790,0.019154,-1.291672,9.119515,-13.983209,3.062523,-5.933932
39585,55.590850,37.672790,0.168791,-1.365892,9.173384,-14.252532,2.846624,-6.600178
39685,55.590850,37.672790,0.093374,-1.444901,9.192538,-14.683481,2.582669,-6.981356
39785,55.590850,37.672790,0.089783,-1.521515,9.348161,-15.045952,2.379046,-7.078097
39885,55.590850,37.672790,0.124498,-1.478420,9.366118,-15.449130,2.303849,-7.007223
39985,55.590850,37.672790,0.138864,-1.476025,9.228451,-15.601428,2.444276,-6.995564
40085,55.590850,37.672790,0.032322,-1.528698,9.192538,-15.717236,2.580382,-7.138206
40185,55.590850,37.672790,0.051475,-1.497573,9.137472,-15.761574,2.461540,-7.081449
40285,55.590850,37.672790,0.128090,-1.504756,9.175779,-15.893266,2.346925,-7.048884
40385,55.590850,37.672790,0.126893,-1.513135,9.325416,-15.996178,2.251930,-7.186178
40485,55.590850,37.672790,0.197522,-1.546654,9.205706,-16.151475,2.105312,-7.321108
40585,55.590850,37.672790,0.065841,-1.619677,9.263167,-16.210054,1.974463,-7.493507
40685,55.590850,37.672790,0.053870,-1.589750,9.188946,-16.397060,1.908239,-7.521068
40785,55.590850,37.672790,0.050278,-1.619677,9.112332,-16.570590,1.974966,-7.435777
40885,55.590850,37.672790,0.113725,-1.549048,9.266758,-16.605491,2.117364,-7.277500
40985,55.590850,37.672790,0.138864,-1.580173,9.187749,-16.701431,2.170737,-7.000294
41085,55.590850,37.672790,0.123301,-1.584961,9.133880,-16.612569,2.248760,-6.693068
41185,55.590850,37.672790,0.129287,-1.436521,9.258378,-16.533819,2.265339,-6.381203
41327,55.590850,37.672790,0.167594,-1.405396,9.233240,-16.447141,2.344233,-6.155545
41427,55.590850,37.672790,0.223858,-1.437718,9.203311,-16.581604,2.361541,-6.304904
41527,55.590850,37.672790,0.162806,-1.571793,9.153034,-16.805662,2.297588,-6.357890
41627,55.590850,37.672790,0.185551,-1.496376,9.233240,-16.767580,2.243067,-6.189384
41728,55.590850,37.672790,0.226252,-1.418565,9.276335,-16.732938,2.411159,-6.031980
41828,55.590850,37.672790,0.116119,-1.345541,9.157822,-16.923465,2.486313,-5.848316
41928,55.590850,37.672790,0.160412,-1.375469,9.220071,-16.841674,2.538030,-5.811793
42028,55.590850,37.672790,0.173580,-1.332373,9.246407,-16.896650,2.620980,-6.008731
42128,55.590850,37.672790,0.180762,-1.389834,9.141062,-16.945854,2.659007,-6.328220
42228,55.590850,37.672790,0.233435,-1.487996,9.258378,-16.859218,2.559717,-6.536369
42328,55.590850,37.672790,0.288501,-1.553837,9.266758,-16.981943,2.415016,-6.721021
42428,55.590850,37.672790,0.332794,-1.485602,9.184158,-17.045715,2.658891,-7.155136
42528,55.590850,37.672790,0.365116,-1.474828,9.296686,-17.027938,2.977899,-7.816135
42628,55.590850,37.672790,0.486023,-1.432930,9.232042,-17.285444,3.030275,-8.593875
42728,55.590850,37.672790,0.454898,-1.490391,9.138669,-17.410631,3.136082,-9.762535
42828,55.590850,37.672790,0.426168,-1.440112,9.176976,-17.229026,2.971302,-11.101815
42928,55.590850,37.672790,0.932542,-1.436521,9.259575,-17.345849,2.737076,-12.353052
43028,55.590850,37.672790,0.894234,-1.362301,9.534909,-17.875610,1.893058,-14.555828
43128,55.590850,37.672790,0.623690,-1.122881,9.244013,-18.527278,1.146112,-18.193845
43228,55.590850,37.672790,nan,nan,nan,nan,nan,nan
43328,55.590847,37.672790,nan,nan,nan,nan,nan,nan
43428,55.590847,37.672790,0.435745,-0.822408,9.762358,-14.989212,-1.395484,-34.924495
43528,55.590847,37.672790,0.562637,-1.031901,10.177752,-12.414727,-3.240118,-41.847625
43628,55.590847,37.672790,-1.149217,-0.150835,9.483433,-9.817204,-5.398679,-50.089523
43728,55.590847,37.672790,-0.512359,-0.172383,9.453506,-8.757188,-4.641320,-56.748023
43828,55.590847,37.672790,-0.548272,1.905785,9.145851,-9.139542,-4.094865,-61.685417
43928,55.590847,37.672790,0.591368,-1.565808,7.360973,-11.440192,-3.562310,-67.841728
44028,55.590847,37.672790,1.006762,0.721852,8.280347,-10.900979,-3.986328,-72.225502
44128,55.590847,37.672790,0.622492,-0.337582,10.131065,-10.097314,-4.172672,-74.506607
44228,55.590847,37.672790,0.383072,-0.331597,10.587161,-10.467985,-3.778586,-74.719963
44328,55.590847,37.672790,0.229843,-1.296460,9.628283,-11.680787,-4.523820,-73.212989
44428,55.590847,37.672790,0.081403,-1.474828,8.804677,-12.390802,-5.818517,-72.283256
44528,55.590847,37.672790,-0.549469,-1.365892,8.180988,-12.828484,-7.801052,-72.688858
44628,55.590847,37.672790,-0.427365,-1.228225,8.078037,-13.111250,-7.130432,-73.840484
44728,55.590847,37.672790,-0.310049,-1.244985,9.588778,-11.715485,-5.603899,-76.015274
44828,55.590847,37.672790,-0.948104,-0.604536,10.506955,-9.354190,-6.534471,-79.088928
44928,55.590847,37.672790,-0.870292,-0.661997,10.988189,-7.886373,-7.474622,-83.083351
45028,55.590847,37.672790,-1.268927,0.244209,9.041703,-8.090360,-10.415059,-86.274223
45128,55.590847,37.672790,-1.096544,-0.618901,7.231686,-9.975016,-10.504755,-87.816505
45228,55.590847,37.672790,nan,nan,nan,nan,nan,nan
45328,55.590854,37.672801,nan,nan,nan,nan,nan,nan
45428,55.590854,37.672801,-0.739808,-1.461660,11.085154,-11.676052,-2.259685,-86.147445
45528,55.590854,37.672801,-0.433350,-1.790863,10.499772,-11.915711,-2.793153,-82.642967
45628,55.590854,37.672801,-0.853533,-1.537077,7.198167,-13.143630,-4.838280,-79.755355
45728,55.590854,37.672801,-0.365116,-0.703895,6.658275,-12.222980,-4.199224,-77.468803
45828,55.590854,37.672801,-0.147243,-1.109712,9.223663,-9.557146,-1.806943,-75.996101
45928,55.590854,37.672801,-0.508768,0.392649,11.007343,-6.882940,-2.349532,-75.682189
46028,55.590854,37.672801,-1.283292,0.707487,11.335349,-6.554077,-4.732680,-76.302505
46128,55.590854,37.672801,-1.616086,0.262165,8.790312,-7.855838,-7.561607,-77.589363
46228,55.590854,37.672801,-0.573411,-0.090980,6.924031,-8.989736,-6.335299,-78.240867
46328,55.590854,37.672801,0.136470,-0.609324,8.480263,-10.326938,-3.197997,-78.849189
46428,55.590854,37.672801,-0.174777,-0.946907,10.307039,-10.733285,-1.442141,-77.658615
46528,55.590854,37.672801,-1.179144,-1.729811,11.890803,-12.481043,-1.325096,-73.862236
46628,55.590854,37.672801,-0.717063,-2.505532,9.737218,-14.086133,-1.358179,-69.126869
46728,55.590854,37.672801,-0.284910,-1.775300,7.188591,-13.791922,-0.697730,-64.294891
46828,55.590854,37.672801,0.243011,-1.144428,7.206547,-12.229095,1.230047,-59.458084
46928,55.590854,37.672801,0.707487,-0.916979,9.045294,-10.506298,3.282282,-55.146354
47028,55.590854,37.672801,-1.064223,-0.051475,11.039665,-8.975250,2.009510,-53.569568
47128,55.590854,37.672801,-1.605312,0.514753,11.013328,-8.301940,0.282397,-53.778602
47228,55.590854,37.672801,nan,nan,nan,nan,nan,nan
47328,55.590869,37.672832,nan,nan,nan,nan,nan,nan
47428,55.590869,37.672832,0.577003,0.169988,7.556100,-8.672327,0.836786,-63.300849
47528,55.590869,37.672832,0.526724,0.017957,10.126276,-8.613709,1.230406,-67.458389
47628,55.590869,37.672832,-0.258574,-1.092953,11.625047,-9.084108,-0.085803,-68.787498
47728,55.590869,37.672832,-0.488417,-2.246958,10.394427,-10.785687,-0.256402,-67.226058
47828,55.590869,37.672832,0.007183,-2.273294,8.088810,-11.261643,1.049994,-62.933128
47928,55.590869,37.672832,0.548272,-1.379060,6.725313,-10.548863,2.871463,-56.978172
48028,55.590869,37.672832,0.768539,-0.916979,8.385692,-9.748415,4.087881,-50.800762
48128,55.590869,37.672832,0.095768,-0.495600,10.884041,-9.578069,4.202513,-46.115501
48228,55.590869,37.672832,-0.837971,0.708684,11.216835,-9.293864,2.525574,-44.619976
48328,55.590869,37.672832,-1.941698,0.897826,10.037691,-8.537861,0.471494,-45.505695
48428,55.590869,37.672832,-1.490391,0.786495,8.087614,-8.185701,-0.826084,-49.623767
48528,55.590869,37.672832,-0.061052,0.082600,7.271191,-8.941989,0.629219,-54.195468
48628,55.590869,37.672832,0.396240,-0.266953,8.280347,-9.202203,1.264587,-58.198810
48728,55.590869,37.672832,0.039504,-0.320823,10.846931,-8.968934,1.631406,-59.780788
48828,55.590869,37.672832,0.762553,-0.873884,11.411963,-10.326443,2.942560,-58.107627
48928,55.590869,37.672832,0.300472,-1.157596,9.475053,-11.126468,3.986724,-54.396247
49028,55.590869,37.672832,0.175974,-0.767342,8.313866,-10.929738,4.494392,-51.428817
49128,55.590869,37.672832,0.274136,-0.247800,6.438008,-10.989957,4.811046,-49.311889
49228,55.590869,37.672832,nan,nan,nan,nan,nan,nan
49328,55.590877,37.672874,-0.108936,0.164003,11.348517,-8.258669,2.340003,-48.863559
49428,55.590877,37.672874,-0.791284,0.741005,11.379641,-6.235548,-1.452866,-50.605308
49528,55.590877,37.672874,-1.211466,0.329203,10.176555,-5.939989,-3.488966,-52.126674
49628,55.590877,37.672874,-0.944513,0.553061,7.542932,-5.475595,-3.873075,-54.989906
49728,55.590877,37.672874,-0.338780,0.474052,6.754043,-6.190221,-2.954191,-57.755359
49828,55.590877,37.672874,0.125696,0.345962,9.568428,-7.531012,-1.661135,-59.229923
49928,55.590877,37.672874,-0.276530,-0.424971,11.238383,-7.599256,-0.756518,-59.080150
50028,55.590877,37.672874,-0.508768,0.022745,11.566389,-7.295459,0.304397,-57.484386
50128,55.590877,37.672874,0.636858,-1.270124,8.953118,-8.828166,2.239034,-53.496074
50228,55.590877,37.672874,0.402226,-1.011550,6.853402,-9.541129,3.558792,-49.866996
50328,55.590877,37.672874,1.048660,-0.503979,7.304709,-9.189668,5.354272,-46.841430
50428,55.590877,37.672874,0.958878,-0.517148,10.024523,-8.011720,5.758285,-44.645530
50528,55.590877,37.672874,-0.111330,0.039504,11.176134,-7.613912,2.711544,-44.401397
50628,55.590877,37.672874,-0.899023,0.301669,10.649410,-7.535583,-0.833312,-45.235050
50728,55.590877,37.672874,-1.148020,-0.209493,9.045294,-8.672686,-2.813680,-46.557163
50828,55.590877,37.672874,-0.908600,0.470461,7.199365,-8.498316,-3.555961,-49.676124
50928,55.590877,37.672874,-0.004788,0.263362,7.425617,-8.233730,-2.736698,-51.829559
51028,55.590877,37.672874,-0.541090,0.557849,10.080787,-6.918979,-1.924142,-53.550003
51128,55.590877,37.672874,-0.550666,0.031125,11.947067,-7.135986,-1.913210,-53.495269
51228,55.590877,37.672874,-0.858321,-0.429759,9.844958,-8.834739,-2.640830,-51.792831
51369,55.590881,37.672912,-0.351948,-1.241394,7.735666,-9.482244,-1.499350,-47.684093
51469,55.590881,37.672912,0.076614,-0.559046,7.023391,-8.985050,0.228477,-45.102241
51569,55.590881,37.672912,0.523133,-0.342371,9.048886,-7.373394,2.094098,-42.900485
51670,55.590881,37.672912,-0.442927,0.183156,11.311407,-6.147555,1.167042,-43.083232
51770,55.590881,37.672912,-0.860715,0.624887,10.832566,-5.511100,-2.168604,-45.364963
51870,55.590881,37.672912,-0.890643,-0.028730,9.326613,-6.041595,-3.547877,-46.770008
51970,55.590881,37.672912,-0.882263,0.207098,7.691373,-6.282169,-3.991940,-47.835605
52070,55.590881,37.672912,0.058658,0.016759,7.562086,-6.973111,-2.598281,-47.591972
52170,55.590881,37.672912,0.195127,-0.027533,8.756793,-7.711583,-0.409763,-46.361076
52270,55.590881,37.672912,-0.829591,-0.477643,10.919955,-8.267842,0.609329,-44.201679
52370,55.590881,37.672912,-0.841562,-0.541090,10.851719,-9.598584,0.591368,-40.829463
52470,55.590881,37.672912,-0.248997,-1.467646,9.477448,-10.283133,0.250030,-36.311580
52570,55.590881,37.672912,-0.266953,-0.542287,7.445967,-10.274417,0.629725,-32.288684
52670,55.590881,37.672912,0.767342,-0.465672,7.031770,-9.286419,3.243635,-27.986576
52770,55.590881,37.672912,0.307655,-0.276530,10.025720,-6.842155,4.584755,-25.021888
52870,55.590881,37.672912,-0.111330,0.283713,10.983401,-5.765928,3.823209,-24.604722
52970,55.590881,37.672912,-1.333570,0.535104,10.711659,-5.076600,0.948264,-25.648532
53070,55.590881,37.672912,-1.072602,0.508768,9.107543,-5.911610,-0.196140,-25.519134
53170,55.590881,37.672912,-0.415394,0.820014,7.307104,-7.132837,0.173729,-26.454896
53292,55.590881,37.672912,nan,nan,nan,nan,nan,nan
53392,55.590881,37.672912,-0.627281,-0.089783,10.979809,-9.017724,1.840785,-26.902507
53492,55.590881,37.672912,-0.141258,-0.700304,11.996148,-8.403542,3.507870,-23.635162
53592,55.590881,37.672912,-0.025139,-1.270124,9.970653,-7.904850,4.208024,-18.801958
53692,55.590881,37.672912,0.374693,-0.955286,7.404069,-8.051493,4.852870,-13.727213
53792,55.590881,37.672912,0.560243,0.001197,6.797139,-7.698851,6.048175,-9.536968
53892,55.590881,37.672912,0.673968,-0.113725,8.459912,-7.489201,6.733330,-6.178164
53992,55.590881,37.672912,-0.181959,-0.231040,10.512940,-6.255325,5.745146,-5.855515
54092,55.590881,37.672912,-0.804452,0.815226,11.391613,-3.949720,2.452950,-8.890056
54192,55.590881,37.672912,-0.450110,0.216675,9.792285,-4.330847,0.309306,-10.888730
54292,55.590881,37.672912,-0.615310,0.050278,7.842207,-5.248604,-0.974680,-12.944088
54392,55.590881,37.672912,0.594959,-0.075417,7.487866,-6.396256,1.140564,-13.930806
54492,55.590881,37.672912,0.709881,0.124498,9.743205,-6.415365,3.361974,-13.592271
54592,55.590881,37.672912,0.059855,-0.384269,10.992978,-6.844844,5.153280,-11.077410
54692,55.590881,37.672912,-0.566229,-0.247800,11.091140,-6.693954,4.043461,-8.095122
54792,55.590881,37.672912,0.532710,-1.483208,8.477869,-8.299965,5.847818,-3.694671
54892,55.590881,37.672912,0.955286,-0.550666,6.878541,-9.199544,8.190186,0.196929
54992,55.590881,37.672912,1.247379,-0.606930,7.753622,-9.768829,8.433947,3.825038
55092,55.590881,37.672912,0.452504,-0.864307,9.782709,-8.634834,7.002337,6.211979
55192,55.590881,37.672912,nan,nan,nan,nan,nan,nan
55292,55.590866,37.672992,nan,nan,nan,nan,nan,nan
55392,55.590866,37.672992,-1.296460,0.090980,8.458715,-5.827925,-2.005206,4.586522
55492,55.590866,37.672992,-0.219069,0.075417,7.305906,-5.853456,-1.132701,3.476120
55592,55.590866,37.672992,0.180762,-0.219069,8.135498,-7.307279,-0.401058,3.193678
55692,55.590866,37.672992,-0.671574,-0.135272,10.702082,-8.326774,-0.764482,3.804027
55792,55.590866,37.672992,-0.330400,-1.173159,10.919955,-10.214665,0.147725,7.067529
55892,55.590866,37.672992,-1.201889,-1.219846,10.177752,-11.800542,-0.000750,11.743075
55992,55.590866,37.672992,-0.439336,-2.175132,8.702923,-12.783500,1.739721,17.626485
56092,55.590866,37.672992,-0.153229,-1.267730,6.872556,-12.125580,3.602825,23.288616
56192,55.590866,37.672992,0.442927,-0.883460,7.380127,-9.891288,5.298570,29.161449
56292,55.590866,37.672992,-0.202310,-0.277727,9.572019,-6.866644,5.502868,33.238357
56392,55.590866,37.672992,-0.442927,0.791284,11.002554,-4.538440,4.751982,34.201778
56492,55.590866,37.672992,-1.169568,1.341950,10.714053,-3.971782,2.275550,32.625686
56592,55.590866,37.672992,-1.358709,0.833182,8.778341,-4.614145,-0.382740,30.355749
56692,55.590866,37.672992,0.105345,0.374693,6.653487,-6.241377,0.595480,27.876897
56792,55.590866,37.672992,0.934936,-0.101754,8.094797,-7.788034,2.732802,26.560047
56892,55.590866,37.672992,-0.317232,-0.243011,10.880450,-8.954727,3.376063,26.875743
56992,55.590866,37.672992,-0.603339,-1.136049,11.931505,-9.791088,3.917773,28.860601
57092,55.590866,37.672992,-0.438139,-1.592144,9.613918,-11.199285,3.609270,31.070081
57192,55.590866,37.672992,nan,nan,nan,nan,nan,nan
57295,55.590854,37.673023,0.453701,-0.096965,7.538144,-9.212770,4.756063,38.418224
57395,55.590854,37.673023,0.404620,0.199916,9.858126,-6.931308,5.547504,40.256740
57495,55.590854,37.673023,-0.497994,0.942118,10.933122,-5.969570,3.954171,38.645961
57595,55.590854,37.673023,-1.102530,1.260547,10.667366,-5.656093,0.759288,34.542373
57695,55.590854,37.673023,-0.854730,0.609324,8.813056,-5.344607,-1.646035,29.493827
57795,55.590854,37.673023,-0.144849,-0.031125,6.959944,-6.391790,-0.843233,25.026769
57895,55.590854,37.673023,1.121683,-0.215478,8.257602,-8.528154,1.890687,21.686185
57995,55.590854,37.673023,-0.202310,-0.480037,11.103111,-9.408791,2.427784,21.213636
58095,55.590854,37.673023,-0.032322,-1.539472,12.103887,-10.663139,3.096074,23.975698
58195,55.590854,37.673023,0.061052,-1.905785,9.071631,-12.151509,3.350628,27.797595
58295,55.590854,37.673023,0.219069,-0.809240,6.848614,-11.723673,3.925729,31.501455
58395,55.590854,37.673023,0.839168,-0.081403,7.390901,-10.011916,5.847777,35.387977
58496,55.590854,37.673023,0.876278,-0.081403,10.234016,-7.672789,6.983351,37.631446
58596,55.590854,37.673023,-0.098162,0.770933,11.050438,-6.402265,5.167829,36.829208
58696,55.590854,37.673023,-0.786495,1.248576,10.475830,-5.389760,2.617339,33.442829
58796,55.590854,37.673023,-0.287304,0.873884,7.876924,-5.049856,1.539797,29.809621
58896,55.590854,37.673023,0.896629,0.016759,7.231686,-6.543313,2.274752,26.205457
58996,55.590854,37.673023,1.113304,0.009577,8.529344,-8.933703,2.174343,23.167551
59096,55.590854,37.673023,-0.077812,-0.526724,11.196485,-9.811596,3.011717,24.024225
59196,55.590854,37.673023,nan,nan,nan,nan,nan,nan
59296,55.590831,37.673030,nan,nan,nan,nan,nan,nan
59396,55.590831,37.673030,0.639252,-0.746991,6.793547,-10.849108,4.501197,33.315769
59496,55.590831,37.673030,1.395820,-0.243011,7.837419,-10.479469,7.588171,36.584419
59596,55.590831,37.673030,0.342371,-0.238223,10.007763,-9.323952,7.705102,37.113525
59696,55.590831,37.673030,0.140061,0.508768,11.429920,-7.102454,5.031239,35.088909
59796,55.590831,37.673030,-0.359130,1.013944,10.389638,-5.698031,1.581839,31.952766
59896,55.590831,37.673030,-0.140061,0.609324,7.504625,-4.748290,-0.140536,28.320226
59996,55.590831,37.673030,0.957681,-0.086191,7.055712,-5.739447,1.077807,25.221336
60096,55.590831,37.673030,1.057040,0.338780,9.479842,-6.808733,2.055058,23.464780
60196,55.590831,37.673030,0.125696,-0.298078,11.240777,-7.850948,2.899290,25.056037
60296,55.590831,37.673030,0.177171,-0.876278,10.890027,-8.745689,3.705102,28.074277
60396,55.590831,37.673030,0.313640,-0.938527,9.281124,-8.718342,3.972864,30.882965
60496,55.590831,37.673030,0.944513,-0.075417,7.189788,-9.546696,4.539960,33.337043
60596,55.590831,37.673030,1.209072,0.120907,7.498640,-9.375089,6.257411,35.481388
60696,55.590831,37.673030,0.174777,-0.294487,10.064027,-7.988005,6.065045,35.031620
60796,55.590831,37.673030,-0.111330,0.337582,11.195287,-6.597375,3.771670,32.595893
60896,55.590831,37.673030,-0.524330,0.594959,9.894039,-6.776652,0.701950,29.317386
60996,55.590831,37.673030,-0.032322,0.269348,7.862558,-6.676425,-0.946879,25.472213
61096,55.590831,37.673030,0.632069,-0.256180,7.504625,-7.618736,-0.535397,22.125305
61196,55.590831,37.673030,nan,nan,nan,nan,nan,nan
61296,55.590808,37.673030,nan,nan,nan,nan,nan,nan
61396,55.590808,37.673030,-0.317232,-1.098939,11.494563,-11.024674,0.824952,21.334346
61496,55.590808,37.673030,0.426168,-1.908179,8.661026,-11.964893,1.743106,24.402376
61596,55.590808,37.673030,0.561440,-0.667982,7.098808,-11.314323,2.245175,27.921689
61696,55.590808,37.673030,0.324414,-0.592565,7.852982,-10.524872,2.455207,31.170499
61796,55.590808,37.673030,-0.062249,-0.254982,10.644621,-9.163214,2.806035,33.081512
61896,55.590808,37.673030,-0.626084,0.007183,11.615470,-8.675782,1.403551,33.492176
61996,55.590808,37.673030,-0.639252,0.363919,9.780314,-9.008459,0.232354,33.741233
62096,55.590808,37.673030,-0.458490,0.396240,7.902063,-9.052557,-0.099128,32.869010
62196,55.590808,37.673030,0.584185,-0.132878,7.619547,-10.648539,2.089179,32.726390
62296,55.590808,37.673030,0.341174,-0.025139,9.045294,-10.890345,3.389045,33.169799
62396,55.590808,37.673030,0.014365,-0.638055,11.245566,-10.335696,3.733793,34.239807
62496,55.590808,37.673030,0.079009,-1.231817,10.692505,-10.658463,3.168148,36.084789
62596,55.590808,37.673030,0.509965,-1.845930,8.554483,-11.195150,3.186102,37.868106
62696,55.590808,37.673030,0.610521,-0.450110,6.938396,-9.968490,3.823974,39.516887
62796,55.590808,37.673030,1.065420,-0.421379,8.470686,-8.306080,5.003276,41.633892
62896,55.590808,37.673030,0.154426,0.092177,10.637438,-7.549950,4.817920,41.596588
62996,55.590808,37.673030,-0.268151,0.214281,11.288661,-7.566959,3.302807,40.645839
63096,55.590808,37.673030,-0.511162,0.190339,9.683349,-7.923519,1.367377,39.462066
63196,55.590808,37.673030,nan,nan,nan,nan,nan,nan
63296,55.590785,37.673042,nan,nan,nan,nan,nan,nan
63396,55.590785,37.673042,0.586579,0.430956,9.873688,-8.776400,4.489758,37.227306
63496,55.590785,37.673042,0.325611,-0.383072,10.875661,-9.418415,5.389761,38.552223
63596,55.590785,37.673042,0.518345,-1.006762,10.327389,-9.658677,5.570730,40.303153
63696,55.590785,37.673042,0.729034,-1.295263,8.627507,-10.360517,5.270247,41.890377
63796,55.590785,37.673042,0.990002,-0.537498,6.865374,-10.108790,5.909859,43.021286
63896,55.590785,37.673042,1.581370,-0.548272,8.634689,-8.872215,6.301856,43.547962
63996,55.590785,37.673042,0.555455,0.263362,10.925940,-7.662274,6.104606,42.770931
64096,55.590785,37.673042,-0.306458,0.430956,11.195287,-7.356448,3.843235,41.945793
64196,55.590785,37.673042,-0.290895,-0.152032,9.327811,-8.063086,2.468287,40.887329
64296,55.590785,37.673042,-0.016759,0.438139,7.715315,-7.832678,2.022068,38.862876
64396,55.590785,37.673042,1.091756,0.032322,7.681796,-8.120277,3.627812,38.422626
64496,55.590785,37.673042,1.027112,0.529119,9.636662,-7.750005,4.775543,38.756637
64596,55.590785,37.673042,0.567426,-0.074220,11.241974,-8.114593,5.854915,40.543777
64696,55.590785,37.673042,0.416591,-0.750582,10.116700,-8.831781,5.735283,42.247482
64796,55.590785,37.673042,0.858321,-0.744597,8.644266,-8.900451,5.954719,43.234241
64896,55.590785,37.673042,0.902614,-0.225055,6.800730,-8.692364,7.854637,43.650897
64996,55.590785,37.673042,2.117671,-0.347159,8.213310,-8.129361,8.084095,43.249961
65096,55.590785,37.673042,0.495600,0.062249,10.523714,-7.841374,6.083917,42.010162
65196,55.590785,37.673042,nan,nan,nan,nan,nan,nan
65296,55.590763,37.673057,0.193930,0.548272,9.805454,-7.044568,3.431988,38.354217
65396,55.590763,37.673057,0.444124,0.234632,7.673417,-7.126197,3.636181,36.633663
65496,55.590763,37.673057,1.574188,-0.015562,7.332242,-7.782280,5.944141,35.731033
65596,55.590763,37.673057,1.248576,0.812831,9.731233,-7.089362,6.629677,35.946811
65696,55.590763,37.673057,0.872686,-0.002394,10.755951,-7.645884,6.951187,38.035484
65796,55.590763,37.673057,0.774524,-0.579397,10.389638,-8.014662,6.699357,40.098064
65896,55.590763,37.673057,0.896629,-0.665588,8.880095,-8.222078,6.656990,41.761222
65996,55.590763,37.673057,1.456872,-0.027533,6.709750,-7.650627,9.111935,42.834342
66096,55.590763,37.673057,1.751358,-0.004788,8.426393,-6.405102,8.931507,43.068916
66196,55.590763,37.673057,1.107318,0.464475,10.418369,-5.750558,8.057719,41.669395
66296,55.590763,37.673057,0.250194,0.762553,11.227609,-5.930452,6.036511,40.588809
66396,55.590763,37.673057,0.154426,0.529119,9.427169,-6.713221,4.264106,39.759872
66496,55.590763,37.673057,0.496797,0.847547,7.346608,-6.592690,3.940683,38.502609
66596,55.590763,37.673057,1.302446,0.209493,7.960721,-7.225420,4.773553,38.251586
66696,55.590763,37.673057,0.202310,0.514753,10.114306,-7.092941,5.213515,37.886066
66796,55.590763,37.673057,0.656011,-0.092177,10.843340,-6.924202,6.837247,38.824707
66896,55.590763,37.673057,0.805649,-0.202310,9.867703,-6.127063,7.286424,40.236896
66996,55.590763,37.673057,0.928950,-0.313640,8.765172,-6.404578,6.714330,40.997779
67096,55.590763,37.673057,1.580173,0.057461,6.865374,-6.860845,6.883955,41.379901
67196,55.590763,37.673057,1.783680,-0.432153,9.222465,-6.249208,7.506525,41.912353
67338,55.590763,37.673057,1.199495,0.460884,10.772711,-4.974064,6.733252,39.805725
67438,55.590763,37.673057,0.387861,0.717063,10.217256,-4.102510,5.236308,38.627925
67538,55.590763,37.673057,-0.090980,0.697910,8.616732,-4.273142,4.480062,37.541202
67638,55.590763,37.673057,1.479617,0.045490,7.242460,-5.632996,6.178130,36.997821
67738,55.590763,37.673057,1.258153,0.776918,8.382101,-6.295068,7.080653,36.870643
67838,55.590763,37.673057,0.738611,0.418985,11.143813,-6.506943,6.752312,38.072769
67938,55.590763,37.673057,0.600945,-0.614113,11.584345,-7.797119,7.298961,39.701202
68038,55.590763,37.673057,0.979228,-1.252167,9.465476,-8.684020,7.244110,41.314598
68139,55.590763,37.673057,0.812831,-0.270545,6.886921,-8.277400,7.451578,42.116546
68239,55.590763,37.673057,1.929727,0.055067,7.199365,-6.815345,9.349536,43.319858
68339,55.590763,37.673057,1.600524,0.049081,10.067619,-6.103459,8.996189,43.535083
68439,55.590763,37.673057,0.956484,0.405817,10.709264,-6.640226,6.624326,43.046367
68539,55.590763,37.673057,0.045490,0.650026,10.121488,-6.805752,3.856951,42.374294
68639,55.590763,37.673057,0.204704,0.632069,8.710106,-6.698651,2.876295,40.856029
68739,55.590763,37.673057,0.877475,0.390255,7.208941,-7.492571,3.404943,39.338653
68839,55.590763,37.673057,0.860715,0.866701,8.741230,-7.762129,4.584570,38.439533
68939,55.590763,37.673057,0.231040,0.153229,11.228806,-7.546163,5.189211,38.843750
69039,55.590763,37.673057,0.702698,-0.719458,11.726800,-8.120945,6.239783,39.966548
69139,55.590763,37.673057,0.811634,-1.000776,9.132683,-8.581401,6.353487,41.275947
69239,55.590763,37.673057,nan,nan,nan,nan,nan,nan
69339,55.590717,37.673084,nan,nan,nan,nan,nan,nan
69439,55.590717,37.673084,1.679533,-0.009577,10.184934,-6.196378,8.651754,42.460498
69539,55.590717,37.673084,0.549469,0.610521,12.018893,-5.577157,6.273154,41.165382
69639,55.590717,37.673084,-0.228646,0.476446,10.024523,-6.450051,3.610766,40.135292
69739,55.590717,37.673084,0.199916,0.638055,7.973889,-6.319062,3.273530,38.433509
69839,55.590717,37.673084,1.089362,0.241814,7.195773,-7.251184,5.294944,37.587379
69939,55.590717,37.673084,0.902614,0.876278,9.009382,-7.412287,6.750358,36.943138
70039,55.590717,37.673084,0.421379,0.117316,10.566810,-8.063909,6.903630,38.210323
70139,55.590717,37.673084,0.567426,-0.632069,11.068395,-8.386257,6.055144,39.722629
70239,55.590717,37.673084,1.149217,-1.325191,9.362526,-9.314482,6.097631,41.227291
70339,55.590717,37.673084,0.924162,-0.441730,7.067683,-8.936134,6.348415,41.827613
70439,55.590717,37.673084,1.611298,-0.306458,7.879318,-8.402144,7.241727,42.288234
70539,55.590717,37.673084,1.596932,-0.503979,9.738416,-7.951856,7.684945,42.440200
70639,55.590717,37.673084,1.115698,0.069432,11.125856,-6.938982,6.419998,41.870540
70739,55.590717,37.673084,0.099359,0.228646,9.871294,-6.618246,4.470691,41.356403
70839,55.590717,37.673084,0.146046,0.368707,8.632295,-6.408400,3.517826,40.190067
70939,55.590717,37.673084,1.011550,0.204704,7.171831,-6.951109,4.502813,39.634651
71040,55.590717,37.673084,1.310825,0.482432,8.659828,-7.119106,5.843349,39.419956
71140,55.590717,37.673084,0.725443,0.076614,10.998963,-7.648350,6.169658,40.350650
71240,55.590717,37.673084,0.859518,-0.816423,11.062410,-9.213621,5.907380,42.132816
71372,55.590702,37.673095,1.132457,-1.624466,8.282741,-11.216101,5.807152,44.238082
71472,55.590702,37.673095,0.872686,-0.611719,6.730101,-11.246838,6.237608,45.479839
71572,55.590702,37.673095,1.570596,-0.821211,8.092402,-9.756881,7.923300,47.161956
71672,55.590702,37.673095,0.752976,-0.717063,10.378865,-8.639639,7.707786,47.902618
71772,55.590702,37.673095,1.228225,-0.272939,11.089942,-7.929874,6.668467,47.572185
71872,55.590702,37.673095,-0.260968,0.622492,10.290279,-7.468739,4.031663,46.708614
71972,55.590702,37.673095,0.171185,0.410606,7.776367,-7.349882,3.134813,45.455127
72072,55.590702,37.673095,0.931344,0.135272,7.457938,-8.497842,4.856062,44.278606
72172,55.590702,37.673095,0.871489,0.185551,8.956709,-9.010630,6.207746,44.066394
72272,55.590702,37.673095,0.614113,-0.375890,11.708844,-9.710369,6.945274,45.038066
72372,55.590702,37.673095,0.699107,-0.691924,10.641030,-10.725197,6.151969,46.492504
72472,55.590702,37.673095,0.700304,-1.211466,8.225280,-12.091966,5.260163,47.430915
72572,55.590702,37.673095,0.988805,-0.417788,6.819883,-11.978726,5.537001,47.936267
72672,55.590702,37.673095,1.545457,-0.803255,8.334217,-10.966994,7.022379,48.771835
72772,55.590702,37.673095,0.385467,0.015562,10.981006,-9.464847,6.514808,47.834659
72872,55.590702,37.673095,-0.307655,0.404620,11.207259,-9.098150,4.229490,46.546714
72972,55.590702,37.673095,0.468066,-0.318429,9.142260,-9.865324,3.264549,44.875324
73072,55.590702,37.673095,0.910994,0.220267,7.448361,-9.645691,3.599254,42.316352
73172,55.590702,37.673095,1.333570,0.003591,8.057686,-10.100566,6.152604,40.726989
73272,55.590686,37.673110,0.687136,-0.116119,9.800665,-10.771454,7.211121,39.519084
73384,55.590686,37.673110,1.143231,-1.419762,11.198879,-11.574743,8.364650,41.138637
73484,55.590686,37.673110,1.072602,-1.786075,9.672575,-11.464709,7.865190,42.371368
73584,55.590686,37.673110,0.420182,-0.999579,8.106767,-11.910983,6.502756,41.995208
73684,55.590686,37.673110,0.749385,-0.645237,7.370550,-12.265932,6.178130,42.652736
73784,55.590686,37.673110,1.401805,-0.805649,9.932346,-11.853085,7.747914,42.982280
73884,55.590686,37.673110,0.830788,-1.054646,10.578781,-11.803863,4.969851,43.392208
73984,55.590686,37.673110,-0.186748,-0.265756,11.118673,-10.934041,2.667042,42.296112
74084,55.590686,37.673110,0.068235,0.070629,9.673772,-11.575756,2.406494,40.796333
74184,55.590686,37.673110,0.354342,0.538695,7.404069,-7.056778,0.971126,40.825443
74284,55.590686,37.673110,0.693121,0.721852,7.368156,-8.057627,4.158963,40.300964
74384,55.590686,37.673110,0.288501,0.294487,10.339361,-10.201478,4.001965,40.730831
74484,55.590686,37.673110,0.985214,-0.288501,11.518505,-10.215824,5.753972,41.548385
74584,55.590686,37.673110,0.973243,-0.885855,9.710883,-9.761716,6.360010,44.403434
74684,55.590686,37.673110,0.505177,-1.349133,8.847773,-10.078783,4.844085,45.930679
74784,55.590686,37.673110,0.933739,-0.201113,7.133524,-10.491831,4.308009,47.701896
74884,55.590686,37.673110,1.533486,-0.541090,8.826225,-10.047196,4.758890,47.675300
74984,55.590686,37.673110,0.209493,-0.469264,10.698491,-8.729718,4.345648,47.557830
75084,55.590686,37.673110,-0.492008,0.111330,10.348937,-7.237285,1.705261,48.182415
75184,55.590686,37.673110,-0.338780,-0.026336,9.856929,-6.856485,0.015963,48.643043
75321,55.590686,37.673110,0.641646,0.296881,7.502231,-9.836543,0.693957,47.975761
75421,55.590686,37.673110,0.645237,0.158017,8.183382,-11.451681,2.204089,47.490680
75521,55.590686,37.673110,-0.463278,-0.445322,10.521320,-10.054305,2.490758,47.569519
75621,55.590686,37.673110,-0.679953,-0.207098,12.152968,-7.700508,1.831467,48.509300
75721,55.590686,37.673110,1.189918,-1.268927,9.114727,-8.475647,2.301919,50.768833
75821,55.590686,37.673110,-0.369904,-0.530316,7.626729,-8.314165,1.291543,50.185462
75921,55.590686,37.673110,0.894234,-0.519542,7.325060,-9.185405,2.688421,51.194824
76021,55.590686,37.673110,0.594959,-0.563834,9.653422,-9.179708,3.271127,50.525634
76121,55.590686,37.673110,-0.073023,-0.574608,11.379641,-9.062491,1.532539,49.848827
76221,55.590686,37.673110,-0.816423,-0.469264,10.657790,-9.272464,-0.328031,49.505249
76321,55.590686,37.673110,-0.895431,0.175974,8.734048,-10.202549,-1.189886,47.891292
76421,55.590686,37.673110,0.773327,-0.280122,7.341819,-12.300642,0.562275,47.401775
76521,55.590686,37.673110,0.323217,-0.136470,8.488642,-12.753669,1.823979,46.242877
76621,55.590686,37.673110,-0.362722,-0.787692,10.942699,-11.559160,2.954528,46.780014
76721,55.590686,37.673110,-0.439336,-1.016339,10.977416,-10.318517,2.239785,48.607494
76821,55.590686,37.673110,0.770933,-1.607706,9.133880,-10.635958,1.801358,50.338039
76921,55.590686,37.673110,0.120907,-0.460884,7.138312,-12.110205,1.458189,50.302677
77021,55.590686,37.673110,0.858321,-0.901417,7.874529,-13.710754,3.152729,50.554447
77121,55.590686,37.673110,0.341174,-1.200692,10.004172,-13.192169,3.839048,50.096851
77221,55.590686,37.673110,nan,nan,nan,nan,nan,nan
77321,55.590644,37.673145,0.117316,-0.963666,10.396821,-10.812221,2.879155,46.529041
77421,55.590644,37.673145,0.056264,-0.356736,7.849390,-11.322282,0.959931,44.150489
77521,55.590644,37.673145,0.612916,-0.335188,7.094019,-12.578602,1.478495,42.931854
77621,55.590644,37.673145,0.563834,-0.335188,8.907628,-11.809423,3.045786,43.457252
77721,55.590644,37.673145,-0.092177,-0.835576,11.847707,-8.939420,3.366722,44.287715
77821,55.590644,37.673145,0.021548,-0.266953,11.192893,-7.836724,3.934555,47.269805
77921,55.590644,37.673145,0.973243,-0.955286,8.511387,-8.749232,3.526066,51.946895
78021,55.590644,37.673145,0.714669,-0.050278,6.979098,-10.856260,3.538120,54.173828
78121,55.590644,37.673145,1.361104,-0.505177,8.087614,-11.902927,4.456954,55.897712
78221,55.590644,37.673145,-0.380678,-0.440533,10.822989,-11.075662,3.164623,55.353168
78321,55.590644,37.673145,-0.541090,0.080206,11.433510,-9.614165,0.702670,53.825897
78422,55.590644,37.673145,-1.242591,-0.240617,9.668984,-9.005822,-1.544124,51.501625
78522,55.590644,37.673145,-0.701501,0.247800,6.912060,-9.058876,-1.058577,48.186336
78622,55.590644,37.673145,1.052252,-0.154426,6.938396,-8.990472,2.318892,45.810005
78722,55.590644,37.673145,0.308852,0.295684,10.802639,-8.279208,2.823441,45.529754
78822,55.590644,37.673145,0.208296,-0.208296,12.160151,-8.788892,3.171116,47.028419
78922,55.590644,37.673145,0.253785,-1.118092,10.309433,-9.860687,2.909399,49.248855
79022,55.590644,37.673145,0.814029,-1.073799,7.756016,-10.552600,3.745262,49.920642
79122,55.590644,37.673145,0.918176,-0.357933,6.849811,-10.164057,4.767403,50.876136
79222,55.590644,37.673145,nan,nan,nan,nan,nan,nan
79322,55.590625,37.673160,nan,nan,nan,nan,nan,nan
79422,55.590625,37.673160,-0.629675,0.543484,10.559627,-7.755369,1.413216,48.726234
79522,55.590625,37.673160,-0.198719,0.342371,8.816648,-7.962213,-0.370378,46.254096
79622,55.590625,37.673160,0.283713,0.077812,6.873753,-8.898794,-0.476688,43.405624
79722,55.590625,37.673160,0.702698,-0.039504,7.863756,-9.813850,-0.024284,41.368217
79822,55.590625,37.673160,0.178368,-0.105345,11.264719,-9.575031,0.763371,40.939899
79922,55.590625,37.673160,0.258574,-0.696713,11.596317,-10.301816,2.153764,42.638351
80022,55.590625,37.673160,0.478840,-1.003170,9.713276,-9.856880,2.973366,45.633247
80122,55.590625,37.673160,0.535104,-0.636858,7.437588,-9.337513,2.500406,47.766101
80222,55.590625,37.673160,0.812831,0.405817,6.618771,-9.317481,3.581643,50.035251
80322,55.590625,37.673160,1.034295,-0.263362,9.241619,-8.229659,4.885204,52.086929
80422,55.590625,37.673160,-0.191536,0.447716,11.493366,-6.432533,2.246698,50.452560
80522,55.590625,37.673160,-1.249773,1.101333,10.919955,-6.308094,-2.033754,47.616363
80622,55.590625,37.673160,-0.962469,0.457293,8.684967,-6.975458,-4.351119,44.312789
80722,55.590625,37.673160,-0.854730,0.679953,6.285976,-7.017847,-3.899477,39.631332
80822,55.590625,37.673160,0.931344,0.022745,8.010999,-7.368044,-2.065379,35.804874
80922,55.590625,37.673160,-0.409408,0.111330,11.850102,-7.857633,-2.032690,33.874610
81022,55.590625,37.673160,-0.071826,-1.261744,11.759122,-10.112849,-1.809380,34.469783
81122,55.590625,37.673160,-0.458490,-1.598130,9.493010,-10.506645,-1.922959,36.711067
81222,55.590625,37.673160,nan,nan,nan,nan,nan,nan
81323,55.590606,37.673168,nan,nan,nan,nan,nan,nan
81423,55.590606,37.673168,-0.192733,-0.577003,10.505758,-8.786288,1.496386,42.668296
81523,55.590606,37.673168,-0.550666,0.379481,11.026496,-6.845961,0.454995,41.228687
81623,55.590606,37.673168,-0.248997,0.578200,10.457874,-5.887444,-1.080421,39.216453
81723,55.590606,37.673168,-0.670376,0.476446,7.299921,-7.280047,-3.556404,36.817195
81823,55.590606,37.673168,0.547075,-0.501585,6.880936,-9.820750,-2.258696,35.064662
81923,55.590606,37.673168,-0.185551,0.219069,9.716868,-9.910253,-1.421905,34.377750
82023,55.590606,37.673168,-0.515950,-0.884657,11.814188,-10.966990,-0.330480,36.193691
82123,55.590606,37.673168,-0.523133,-1.315614,10.639833,-11.712345,-0.875933,38.499118
82223,55.590606,37.673168,0.032322,-1.222240,8.158243,-11.917168,-0.481740,40.341815
82323,55.590606,37.673168,0.234632,-0.350751,6.503849,-11.083343,0.788457,42.589305
82423,55.590606,37.673168,0.357933,-0.421379,8.437168,-9.900727,2.695034,44.660644
82523,55.590606,37.673168,-0.307655,-0.284910,10.746375,-9.263616,1.845728,44.255836
82623,55.590606,37.673168,-0.483629,0.209493,11.159375,-8.161127,-0.488599,42.013263
82723,55.590606,37.673168,-0.657208,0.621295,10.126276,-6.680224,-3.176561,38.495594
82823,55.590606,37.673168,-0.307655,0.096965,6.465542,-6.899272,-5.114548,34.478946
82923,55.590606,37.673168,0.480037,-0.466869,7.765593,-8.178578,-3.518315,31.175422
83023,55.590606,37.673168,-0.035913,-0.679953,10.271125,-9.193258,-1.457310,30.228305
83123,55.590606,37.673168,-0.221464,-1.021127,11.988965,-10.095094,-0.116786,32.139698
83223,55.590606,37.673168,-0.774524,-1.996764,10.460268,-11.465863,-0.505113,36.802944
83365,55.590583,37.673187,nan,nan,nan,nan,nan,nan
83465,55.590583,37.673187,-0.210690,1.016339,7.687782,-8.818325,2.264089,46.030956
83565,55.590583,37.673187,0.733823,0.073023,10.302250,-8.110756,3.758389,48.598201
83665,55.590583,37.673187,-0.362722,0.660800,11.168951,-7.133223,1.230846,47.163063
83765,55.590583,37.673187,-1.142034,0.543484,10.698491,-7.900245,-0.486273,43.569835
83865,55.590583,37.673187,-0.779313,0.946907,7.170634,-8.029242,-3.146612,37.789718
83965,55.590583,37.673187,0.714669,-0.086191,6.701371,-8.714344,-2.447199,33.307689
84065,55.590583,37.673187,0.099359,-0.020351,9.561244,-9.697071,-2.339152,29.715473
84165,55.590583,37.673187,-0.363919,-1.103727,11.209652,-11.259109,-2.302008,28.943908
84265,55.590583,37.673187,-0.761356,-1.356315,11.411963,-10.858677,-2.546232,30.755073
84365,55.590583,37.673187,-0.391452,-2.031480,8.693346,-10.876916,-1.649458,34.008697
84465,55.590583,37.673187,0.180762,-0.659603,6.278794,-9.761159,0.521115,37.686859
84566,55.590583,37.673187,0.751779,0.100556,7.874529,-7.747124,2.835615,41.605834
84666,55.590583,37.673187,0.009577,0.363919,10.858902,-6.258357,2.924347,43.353412
84766,55.590583,37.673187,-0.337582,0.873884,11.754334,-5.739870,0.926070,42.688568
84866,55.590583,37.673187,-1.486799,1.878251,9.712080,-5.421971,-1.575012,40.797744
84966,55.590583,37.673187,-0.298078,0.462081,6.513426,-5.179217,-2.602492,38.297309
85066,55.590583,37.673187,0.333991,-0.070629,7.372944,-5.643467,-2.519468,35.676677
85166,55.590583,37.673187,-0.232238,-0.094571,10.284294,-7.412542,-1.870083,34.764575
85266,55.590557,37.673198,nan,nan,nan,nan,nan,nan
85366,55.590557,37.673198,nan,nan,nan,nan,nan,nan
85466,55.590557,37.673198,-0.058658,-1.306037,7.327454,-11.257562,-0.303957,42.473258
85566,55.590557,37.673198,0.509965,-0.114922,6.600814,-10.136767,1.756547,45.697216
85666,55.590557,37.673198,0.590171,0.041899,9.105150,-8.785997,4.570536,48.795818
85766,55.590557,37.673198,-0.920571,0.872686,11.330560,-7.185916,2.679226,48.245258
85866,55.590557,37.673198,-1.200692,1.115698,10.619482,-6.565481,-0.019530,45.660423
85966,55.590557,37.673198,-0.780510,0.559046,8.957906,-6.091996,-2.185759,41.691444
86066,55.590557,37.673198,-0.241814,0.126893,6.409278,-6.742632,-2.715838,37.050815
86166,55.590557,37.673198,0.605733,-0.338780,8.157046,-7.488979,-2.291456,33.667160
86266,55.590557,37.673198,-0.304064,-0.341174,11.537658,-7.727343,-1.635862,32.008083
86366,55.590557,37.673198,-0.490811,-0.942118,11.647791,-8.837273,-1.377590,33.464138
86466,55.590557,37.673198,-0.190339,-1.711854,9.352950,-9.678949,-0.942720,37.331043
86566,55.590557,37.673198,-0.606930,-0.797269,6.867768,-9.155156,-0.972802,41.358425
86666,55.590557,37.673198,0.436942,-0.244209,7.542932,-7.876296,1.261687,44.995090
86766,55.590557,37.673198,0.268151,-0.047884,10.047267,-6.411707,2.080007,47.544311
86866,55.590557,37.673198,-0.397438,0.764947,11.760319,-5.329329,0.496636,46.795616
86966,55.590557,37.673198,-1.164779,1.644816,10.131065,-5.432171,-1.208748,44.363670
87066,55.590557,37.673198,-0.711078,0.776918,7.736863,-5.456207,-2.648772,41.081775
87166,55.590557,37.673198,0.379481,0.045490,6.676231,-7.081172,-1.412587,38.337821
87266,55.590534,37.673206,nan,nan,nan,nan,nan,nan
87366,55.590534,37.673206,nan,nan,nan,nan,nan,nan
87467,55.590534,37.673206,-0.676362,-1.547851,11.723209,-12.075507,-0.141887,40.181312
87567,55.590534,37.673206,0.056264,-1.449689,8.944738,-12.458198,0.662594,43.694423
87667,55.590534,37.673206,0.107739,-0.469264,6.658275,-10.805162,1.620711,47.062263
87767,55.590534,37.673206,0.774524,0.153229,7.946355,-8.917503,3.893606,50.542613
87867,55.590534,37.673206,0.214281,0.173580,10.460268,-7.317222,4.230828,51.345325
87967,55.590534,37.673206,-0.143652,0.690727,11.403583,-5.873038,2.439067,49.095527
88067,55.590534,37.673206,-1.180341,1.616086,10.081984,-4.977053,-0.180421,45.409461
88167,55.590534,37.673206,-0.444124,0.756568,6.554127,-5.237421,-1.531421,41.180133
88267,55.590534,37.673206,0.750582,-0.095768,7.479486,-6.056900,-0.702932,37.113826
88367,55.590534,37.673206,0.475249,0.174777,9.911995,-7.677837,-0.458378,35.143115
88467,55.590534,37.673206,-0.575805,-0.248997,11.932702,-9.004332,-0.305387,35.276489
88567,55.590534,37.673206,-0.290895,-1.380257,10.702082,-10.139245,-0.454150,37.474361
88667,55.590534,37.673206,-0.043096,-1.222240,7.904457,-10.247143,-0.695120,39.865974
88767,55.590534,37.673206,0.238223,0.143652,6.238092,-8.776883,0.639853,42.664268
88867,55.590534,37.673206,0.635661,-0.152032,9.041703,-7.047852,3.129452,45.465812
88967,55.590534,37.673206,-0.702698,0.782904,11.001358,-5.470795,1.669182,45.672210
89067,55.590534,37.673206,-0.395043,1.029507,11.384429,-4.336388,-0.408625,43.837657
89167,55.590534,37.673206,-0.870292,0.919373,8.826225,-4.815770,-3.179690,40.002830
89267,55.590511,37.673210,-0.065841,0.219069,6.517017,-6.113712,-4.107392,35.379310
89381,55.590511,37.673210,0.120907,0.049081,8.815451,-7.260750,-3.920542,32.535804
89481,55.590511,37.673210,-0.749385,-0.614113,11.677720,-8.511826,-2.771143,32.012348
89581,55.590511,37.673210,-0.871489,-1.167173,11.607090,-10.334646,-1.498646,33.859436
89681,55.590511,37.673210,0.003591,-1.895011,9.142260,-11.092733,0.201952,37.172573
89781,55.590511,37.673210,-0.244209,-0.229843,6.633136,-9.759155,0.559680,40.442077
89881,55.590511,37.673210,0.518345,0.373495,7.433996,-8.245691,2.320894,44.622482
89981,55.590511,37.673210,0.028730,0.067038,10.151415,-6.906022,3.119273,46.471031
90081,55.590511,37.673210,-0.208296,1.023521,10.633848,-6.349847,1.277818,44.943897
90181,55.590511,37.673210,-0.720655,1.490391,10.152613,-5.796265,-1.469089,41.341522
90281,55.590511,37.673210,-1.030704,1.021127,8.427591,-5.493313,-4.899044,37.296154
90381,55.590511,37.673210,-0.123301,0.233435,7.074866,-7.279244,-4.245605,33.335414
90481,55.590511,37.673210,0.549469,-0.264559,8.941146,-9.380272,-2.934254,30.755062
90582,55.590511,37.673210,-1.060631,-0.628478,11.263523,-9.824964,-2.410178,30.010503
90682,55.590511,37.673210,-0.802058,-1.614889,11.821372,-10.744953,-2.427961,31.083375
90782,55.590511,37.673210,-0.408211,-1.680730,8.482657,-11.594332,-3.144588,32.949554
90882,55.590511,37.673210,-0.111330,-0.229843,5.536592,-10.762863,-1.375984,36.335834
90982,55.590511,37.673210,0.961272,-0.912191,8.073248,-8.645066,1.715813,39.802986
91082,55.590511,37.673210,-0.755371,-0.136470,10.763134,-7.158705,-0.411192,40.611938
91182,55.590511,37.673210,-1.058237,0.669179,12.158954,-6.607178,-2.463525,38.739875
91307,55.590511,37.673210,-0.948104,0.764947,9.099164,-7.535243,-4.957624,35.025993
91407,55.590511,37.673210,-0.513556,0.268151,5.802348,-8.344067,-5.388801,32.326980
91507,55.590511,37.673210,0.639252,-0.483629,8.135498,-9.822472,-2.744771,31.186416
91607,55.590511,37.673210,-0.436942,-0.430956,11.349714,-10.466576,-1.031695,31.429712
91707,55.590511,37.673210,-0.401029,-1.241394,12.321760,-12.387358,-0.587050,33.662899
91807,55.590511,37.673210,-0.477643,-2.025495,9.560048,-13.889684,-0.842761,36.615982
91907,55.590511,37.673210,-0.100556,-1.164779,6.787562,-13.224421,0.251644,38.725231
92007,55.590511,37.673210,1.047463,-0.537498,6.573281,-11.575119,3.057747,41.611465
92107,55.590511,37.673210,0.146046,-0.478840,9.548077,-9.919077,2.515383,43.330951
92207,55.590511,37.673210,-0.654814,-0.243011,11.506534,-9.613228,-0.380780,41.601566
92307,55.590511,37.673210,-1.952471,1.246182,10.698491,-7.435810,-5.398104,36.774379
92407,55.590511,37.673210,-1.504756,0.826000,8.443153,-6.294968,-7.042994,34.250209
92507,55.590511,37.673210,-0.096965,-0.107739,6.551733,-7.140314,-6.398763,31.545217
92607,55.590511,37.673210,-0.167594,-0.244209,8.819043,-8.371425,-5.078403,29.455486
92707,55.590511,37.673210,-1.047463,-0.386664,11.368867,-8.808767,-3.619300,29.363819
92807,55.590511,37.673210,-0.891840,-0.816423,12.120647,-9.513212,-2.056769,31.407817
92907,55.590511,37.673210,-0.177171,-1.792060,9.173384,-10.432002,-1.263494,34.283908
93007,55.590511,37.673210,-0.122104,-0.453701,5.801151,-9.534907,-0.589015,37.587013
93107,55.590511,37.673210,0.219069,0.302867,7.301118,-8.010289,1.504213,41.371955
93207,55.590511,37.673210,0.560243,-0.319626,10.149022,-6.821862,2.112910,43.439476
93346,55.590469,37.673233,-0.957681,0.896629,11.210850,-3.906282,-1.358986,40.277946
93446,55.590469,37.673233,-1.034295,1.288081,10.623073,-2.610163,-3.427638,38.157470
93546,55.590469,37.673233,-0.719458,0.933739,6.970718,-3.175366,-5.660166,35.165264
93646,55.590469,37.673233,0.503979,-0.081403,6.724115,-5.150999,-2.570912,34.472183
93746,55.590469,37.673233,1.057040,0.177171,7.990648,-5.705872,1.755302,34.845008
93846,55.590469,37.673233,-0.593762,0.600945,11.087549,-5.601809,3.161659,37.005287
93946,55.590469,37.673233,-0.514753,-0.063446,11.882424,-7.257097,2.886768,40.175422
94046,55.590469,37.673233,0.725443,-0.803255,10.404004,-8.919316,2.086375,42.306381
94146,55.590469,37.673233,0.062249,0.539892,6.230910,-8.847603,0.655169,44.206031
94246,55.590469,37.673233,0.836773,0.272939,6.320693,-7.776355,2.496794,46.501434
94346,55.590469,37.673233,0.654814,-0.167594,9.742007,-6.545025,3.267153,44.834648
94446,55.590469,37.673233,-0.287304,0.890643,10.757148,-6.147915,2.122589,40.521320
94546,55.590469,37.673233,-0.537498,0.814029,11.402386,-5.715956,-0.531792,36.339862
94646,55.590469,37.673233,-0.541090,0.318429,8.604762,-6.247567,-4.343436,33.987365
94746,55.590469,37.673233,0.416591,-0.140061,6.661866,-6.115015,-3.844542,32.406684
94846,55.590469,37.673233,-0.187945,0.195127,9.521740,-6.695906,-1.456550,33.505279
94946,55.590469,37.673233,-0.676362,-1.365892,13.345281,-8.827673,1.867452,36.109134
95046,55.590469,37.673233,0.368707,-1.695095,10.748769,-9.900056,3.109398,38.775207
95147,55.590469,37.673233,-0.158017,-0.974440,8.013394,-9.727169,0.386189,41.502082
95247,55.590469,37.673233,nan,nan,nan,nan,nan,nan
95347,55.590446,37.673236,nan,nan,nan,nan,nan,nan
95447,55.590446,37.673236,0.107739,0.440533,10.594343,-6.398028,6.582662,48.125453
95547,55.590446,37.673236,1.562217,0.586579,10.617088,-6.661006,6.407607,44.235233
95647,55.590446,37.673236,-0.579397,0.867898,8.639477,-6.530071,-0.281078,40.481441
95747,55.590446,37.673236,0.057461,-0.475249,6.306327,-6.910212,-2.034522,38.222991
95847,55.590446,37.673236,0.480037,-0.435745,9.047689,-8.082880,-0.820308,36.621803
95947,55.590446,37.673236,-0.457293,-0.397438,11.766304,-9.991884,-0.505378,36.785793
96047,55.590446,37.673236,-1.538275,-1.115698,12.474988,-11.777637,-2.206692,39.803623
96147,55.590446,37.673236,-0.318429,-2.219425,8.444350,-13.274765,-1.441842,43.183815
96247,55.590446,37.673236,-0.128090,-0.506374,6.366182,-10.768851,-0.318592,46.252319
96347,55.590446,37.673236,0.166397,-0.305261,7.686584,-9.241477,2.366529,49.559127
96447,55.590446,37.673236,0.135272,-0.140061,10.687717,-7.211287,3.124925,49.654396
96547,55.590446,37.673236,-2.367866,1.736993,12.576742,-4.787003,-2.025635,47.479736
96647,55.590446,37.673236,-0.939724,0.910994,9.661802,-5.607131,-4.445022,45.499893
96747,55.590446,37.673236,-0.940921,0.964863,5.953183,-5.895954,-5.962988,41.408267
96847,55.590446,37.673236,0.243011,0.146046,7.466318,-7.877026,-4.946308,38.687705
96947,55.590446,37.673236,-0.822408,-0.173580,11.427525,-9.020359,-3.879409,36.902854
97047,55.590446,37.673236,-0.910994,-1.289278,11.936293,-11.246079,-2.951402,37.594127
97147,55.590446,37.673236,-0.639252,-1.953669,10.049662,-12.118003,-2.196975,40.261833
97247,55.590446,37.673236,nan,nan,nan,nan,nan,nan
97347,55.590419,37.673244,nan,nan,nan,nan,nan,nan
97447,55.590419,37.673244,-0.374693,-0.602142,10.382456,-10.315143,1.782012,48.470962
97547,55.590419,37.673244,-1.225831,0.317232,11.328166,-8.564948,-0.887862,47.275707
97647,55.590419,37.673244,-1.310825,0.638055,10.156204,-7.175557,-3.905028,44.144767
97747,55.590419,37.673244,-1.218649,0.339977,8.526949,-6.631356,-6.035961,41.357105
97847,55.590419,37.673244,-0.579397,0.503979,6.924031,-6.486607,-5.616687,37.717239
97947,55.590419,37.673244,0.110133,0.178368,8.170214,-7.429324,-4.705977,35.010463
98048,55.590419,37.673244,-0.863110,-0.571017,11.066000,-9.281139,-3.929778,34.659046
98148,55.590419,37.673244,-0.511162,-1.256956,11.148601,-11.317139,-2.477811,36.678012
98248,55.590419,37.673244,-0.754173,-1.467646,9.721656,-12.054780,-2.023867,40.454105
98348,55.590419,37.673244,-0.442927,-1.103727,7.520187,-12.252449,-1.203928,43.906627
98448,55.590419,37.673244,0.304064,-0.217872,7.236474,-11.048638,0.544319,47.383998
98548,55.590419,37.673244,0.274136,-0.027533,9.109938,-9.284583,2.006718,49.943107
98648,55.590419,37.673244,-0.368707,0.385467,10.698491,-8.245417,1.523237,49.521480
98748,55.590419,37.673244,-0.870292,0.815226,11.099519,-7.217057,-0.444586,47.324279
98848,55.590419,37.673244,-1.242591,1.440112,8.884883,-5.901429,-2.984960,43.738201
98948,55.590419,37.673244,0.390255,-0.148441,7.049727,-6.401819,-2.988022,40.227199
99048,55.590419,37.673244,0.360327,0.241814,8.033744,-7.581082,-2.008635,37.914840
99148,55.590419,37.673244,-0.506374,0.190339,11.212047,-8.387914,-0.741525,36.800830
99248,55.590419,37.673244,0.646434,-1.315614,11.577163,-11.405411,0.456679,38.561752
99381,55.590393,37.673255,-0.422577,-2.037466,8.784326,-12.328300,0.177397,41.435855
99481,55.590393,37.673255,0.149638,-0.713472,6.406884,-11.404384,1.689689,44.267379
99581,55.590393,37.673255,1.011550,-0.228646,7.706935,-9.700379,3.760193,47.340225
99681,55.590393,37.673255,-0.190339,0.175974,11.106702,-6.963259,3.038471,47.528041
99781,55.590393,37.673255,-0.714669,0.788889,11.650186,-6.339835,0.238552,45.213169
99881,55.590393,37.673255,-1.125275,0.818817,9.466674,-6.524155,-2.199699,41.824462
99981,55.590393,37.673255,-0.235829,0.537498,6.603208,-6.666327,-3.540236,36.102039
100081,55.590393,37.673255,0.781707,-0.251391,7.341819,-8.364754,-3.128965,31.765960
100182,55.590393,37.673255,0.179565,-0.690727,10.721236,-8.891274,-2.498764,29.469600
100282,55.590393,37.673255,-0.470461,-1.193510,12.792221,-9.751793,-1.689027,30.525161
100382,55.590393,37.673255,-0.744597,-2.097321,10.281900,-11.448263,-0.971262,33.945457
100482,55.590393,37.673255,-0.357933,-1.114501,6.597223,-11.892979,0.312308,37.959423
100582,55.590393,37.673255,0.633266,-0.208296,6.323087,-10.790252,2.851642,43.187473
100682,55.590393,37.673255,0.826000,-0.154426,9.431958,-9.338152,4.202842,47.146080
100782,55.590393,37.673255,-0.851139,0.729034,11.026496,-7.904990,1.903469,46.738334
100882,55.590393,37.673255,-0.791284,1.145625,10.630256,-6.489090,-1.118831,43.266403
100982,55.590393,37.673255,-1.100136,0.944513,8.882489,-5.304155,-4.812774,39.041790
101082,55.590393,37.673255,-0.266953,0.068235,6.939594,-5.912850,-5.248634,34.936676
101182,55.590393,37.673255,0.614113,-0.494403,8.562863,-7.483553,-3.500418,32.336338
101282,55.590370,37.673278,nan,nan,nan,nan,nan,nan
101382,55.590370,37.673278,-0.456095,-1.302446,11.546038,-11.138969,-0.993766,34.906150
101482,55.590370,37.673278,-0.203507,-1.978808,9.380483,-12.147884,-0.457966,39.087612
101582,55.590370,37.673278,-0.184354,-0.610521,6.224925,-12.264469,0.540214,43.303207
101682,55.590370,37.673278,0.532710,-0.002394,7.546524,-10.924078,3.092028,47.851810
101782,55.590370,37.673278,-0.222661,-0.023942,10.692505,-9.390759,3.402510,49.727806
101882,55.590370,37.673278,-0.651223,0.816423,11.222821,-8.254775,0.613409,47.981636
101982,55.590370,37.673278,-1.146823,1.146823,10.363303,-6.978143,-2.716261,44.122795
102082,55.590370,37.673278,-0.808043,-0.076614,7.441179,-7.584104,-4.888652,39.112731
102182,55.590370,37.673278,0.399832,-0.508768,7.347805,-8.988300,-2.910620,34.132606
102282,55.590370,37.673278,-0.058658,-0.604536,10.182540,-9.643035,-0.822048,31.172168
102382,55.590370,37.673278,-0.448913,-1.337162,12.027273,-10.614395,0.382292,31.196426
102482,55.590370,37.673278,-0.436942,-1.648408,10.770317,-10.879631,0.048264,33.867172
102582,55.590370,37.673278,0.126893,-1.164779,7.416040,-11.326934,0.677340,36.503143
102682,55.590370,37.673278,0.641646,-0.857124,6.479907,-11.780307,2.648005,39.416835
102782,55.590370,37.673278,0.314838,-1.167173,8.912416,-12.528237,3.265943,42.060264
102882,55.590370,37.673278,-0.155623,-0.973243,10.832566,-13.035712,2.251950,42.625881
102982,55.590370,37.673278,0.106542,-0.956484,10.734404,-13.393612,2.031203,42.503665
103083,55.590370,37.673278,-0.317232,-0.575805,9.178173,-13.208555,0.479913,41.963703
103183,55.590370,37.673278,0.241814,-0.681150,6.879739,-14.090673,-0.085791,41.391185
103283,55.590351,37.673297,nan,nan,nan,nan,nan,nan
103383,55.590351,37.673297,nan,nan,nan,nan,nan,nan
103483,55.590351,37.673297,-0.284910,-1.474828,12.836513,-16.712419,0.663579,42.829574
103583,55.590351,37.673297,-0.294487,-1.958457,9.040506,-17.285139,1.251814,45.896408
103683,55.590351,37.673297,0.545878,-2.163161,6.829460,-16.141414,1.686985,45.669223
103783,55.590351,37.673297,0.057461,-0.842759,6.936002,-14.378494,1.349357,45.093479
103883,55.590351,37.673297,-0.156820,-1.459266,10.048465,-14.115839,1.294489,45.791725
103983,55.590351,37.673297,-0.035913,-1.169568,10.785879,-13.951248,-0.307418,46.018001
104083,55.590351,37.673297,-1.516727,-0.450110,10.409990,-12.763201,-3.092853,44.464130
104183,55.590351,37.673297,-1.096544,-0.143652,8.859744,-12.071489,-4.996623,43.245872
104283,55.590351,37.673297,-0.429759,-0.518345,7.612364,-13.441072,-4.538325,42.730419
104383,55.590351,37.673297,-0.332794,-0.493206,8.639477,-14.371409,-1.615716,42.309860
104483,55.590351,37.673297,-0.383072,-0.933739,10.099941,-12.783448,0.661618,43.422233
104583,55.590351,37.673297,-0.610521,-0.822408,11.390415,-11.234140,1.525352,44.744712
104683,55.590351,37.673297,0.117316,-0.724246,9.610326,-11.063112,0.171045,47.233989
104783,55.590351,37.673297,-0.434548,-0.871489,6.817489,-11.884522,-2.144569,48.881706
104883,55.590351,37.673297,-0.007183,-0.253785,7.708132,-11.397338,-1.942402,50.327091
104983,55.590351,37.673297,0.063446,-0.890643,9.810242,-10.770248,-0.886750,50.799247
105083,55.590351,37.673297,-1.285686,0.240617,10.192117,-8.954197,-3.251165,49.464485
105183,55.590351,37.673297,-1.086968,-0.167594,11.110294,-7.801166,-3.870482,47.811462
105288,55.590351,37.673297,nan,nan,nan,nan,nan,nan
105388,55.590351,37.673297,-0.492008,-0.087388,7.250840,-9.731385,-6.110894,43.000370
105488,55.590351,37.673297,-0.444124,-0.141258,8.797494,-10.470193,-3.541585,42.159656
105588,55.590351,37.673297,-1.010353,-0.861913,10.947487,-10.510301,-1.759400,42.536262
105688,55.590351,37.673297,-1.146823,-1.340753,10.888830,-11.551522,-2.576004,43.902385
105788,55.590351,37.673297,-0.310049,-2.199074,8.196550,-12.942496,-3.493796,46.011810
105888,55.590351,37.673297,-0.422577,-0.792481,6.768408,-12.041521,-3.855360,47.554080
105988,55.590351,37.673297,0.146046,-0.656011,8.522161,-11.132523,-1.869190,49.538948
106088,55.590351,37.673297,-0.763750,-0.726640,10.983401,-10.353528,-1.007890,49.934494
106188,55.590351,37.673297,-1.089362,-0.476446,10.929532,-10.133319,-1.679951,49.040096
106288,55.590351,37.673297,-1.175553,-0.301669,9.856929,-10.358703,-3.322806,47.661510
106388,55.590351,37.673297,-0.834379,-0.130484,7.180211,-10.267870,-5.141781,46.521980
106488,55.590351,37.673297,-0.025139,-0.276530,7.809886,-10.866643,-3.520451,46.245628
106588,55.590351,37.673297,-0.592565,-0.049081,10.052057,-11.013662,-2.256015,46.355964
106688,55.590351,37.673297,-1.059434,-0.812831,11.001358,-12.241819,-2.436341,47.549137
106788,55.590351,37.673297,-1.458069,-1.431733,10.110714,-13.172793,-3.768427,49.039218
106888,55.590351,37.673297,-0.199916,-1.529895,8.669404,-14.009224,-2.502054,50.821151
106988,55.590351,37.673297,0.729034,-0.756568,8.163031,-13.527014,-1.236043,52.053947
107088,55.590351,37.673297,0.178368,-0.799663,9.635465,-12.802327,-0.466173,51.887214
107188,55.590351,37.673297,-0.611719,-1.085770,10.477027,-12.903910,0.562960,50.987155
107316,55.590351,37.673297,-0.863110,-0.758962,9.889250,-11.715801,1.086104,48.008914
107416,55.590351,37.673297,-0.610521,-0.020351,8.457518,-10.133183,-0.338299,45.722084
107516,55.590351,37.673297,-0.656011,-0.214281,7.404069,-9.879055,-2.037848,44.706188
107616,55.590351,37.673297,-0.345962,0.118513,7.965509,-10.739280,-0.767777,44.532958
107716,55.590351,37.673297,-0.410606,-0.181959,9.858126,-10.414865,1.612576,45.789909
107816,55.590351,37.673297,0.402226,-0.501585,10.382456,-9.557315,1.462126,47.567802
107916,55.590351,37.673297,0.578200,-0.876278,9.774329,-9.177660,1.464972,49.773075
108016,55.590351,37.673297,0.013168,-0.939724,8.710106,-9.844763,0.540102,51.260097
108116,55.590351,37.673297,0.064643,0.199916,7.457938,-9.185216,-0.870717,51.024776
108216,55.590351,37.673297,0.149638,-0.424971,8.762779,-9.605870,1.841428,51.361469
108316,55.590351,37.673297,0.319626,-0.229843,10.466253,-9.211981,1.911054,49.155696
108416,55.590351,37.673297,-0.821211,0.268151,10.856508,-8.052106,-0.244881,47.620033
108516,55.590351,37.673297,-0.899023,0.778116,9.306262,-7.515767,-0.992320,46.333045
108616,55.590351,37.673297,-0.341174,0.744597,7.876924,-7.551753,-2.756287,44.460453
108716,55.590351,37.673297,-0.369904,0.764947,8.045715,-7.910540,-3.524738,44.307643
108816,55.590351,37.673297,-0.497994,0.175974,9.479842,-9.072662,-2.126770,44.932075
108916,55.590351,37.673297,-0.354342,-0.577003,10.617088,-10.335368,-0.692989,45.784725
109016,55.590351,37.673297,-0.284910,-1.400608,10.283097,-10.839191,-1.875889,46.791931
109116,55.590351,37.673297,-0.836773,-1.799243,9.190144,-10.890839,-3.327419,48.127658
109216,55.590351,37.673297,nan,nan,nan,nan,nan,nan
109321,55.590274,37.673358,0.361524,-0.555455,8.754399,-10.819594,-2.084790,48.751800
109421,55.590274,37.673358,-0.008380,-0.822408,9.539697,-10.658301,-2.094937,48.326831
109521,55.590274,37.673358,-0.445322,-0.428562,10.222044,-10.610733,-2.965558,47.618835
109621,55.590274,37.673358,-1.233014,-0.717063,10.146627,-10.752367,-4.713580,47.221557
109721,55.590274,37.673358,-2.090138,-0.254982,9.083601,-9.970959,-7.004344,45.941944
109821,55.590274,37.673358,-0.869095,-0.474052,8.271967,-10.262024,-5.204591,45.097114
109921,55.590274,37.673358,-0.166397,-0.058658,8.720880,-10.926492,-2.922610,44.407608
110021,55.590274,37.673358,-0.032322,-0.088585,9.441534,-11.094641,-1.809330,44.642028
110121,55.590274,37.673358,-0.555455,-0.735020,9.991004,-11.165638,-1.611273,45.921562
110221,55.590274,37.673358,-0.286107,-1.159991,10.220848,-11.548433,-1.374758,47.460311
110321,55.590274,37.673358,0.076614,-1.751358,9.181764,-11.993270,-0.989762,49.927745
110422,55.590274,37.673358,0.134075,-0.920571,7.648277,-12.051120,-1.181813,51.295330
110522,55.590274,37.673358,0.362722,-0.603339,8.288726,-11.278786,-0.964175,52.473220
110622,55.590274,37.673358,-0.381875,-0.837971,9.703700,-11.331644,-0.843102,53.228328
110722,55.590274,37.673358,-0.689530,-0.561440,10.582372,-11.266400,-1.066863,53.123928
110822,55.590274,37.673358,-1.098939,-0.372298,10.328587,-10.882467,-2.508046,52.779865
110922,55.590274,37.673358,-0.767342,-0.228646,8.905234,-10.570151,-4.065016,51.492183
111022,55.590274,37.673358,-0.543484,-0.253785,7.626729,-10.416797,-4.347642,49.712409
111122,55.590274,37.673358,-0.228646,0.189142,8.450335,-11.261002,-2.470196,48.335060
111222,55.590274,37.673358,-0.154426,-0.175974,9.674969,-11.774374,-0.972392,49.119606
111362,55.590259,37.673377,-0.403423,-1.034295,11.391613,-12.157860,-0.166628,50.917850
111462,55.590259,37.673377,-0.711078,-1.783680,9.495405,-12.475884,-1.887848,52.568462
111562,55.590259,37.673377,-0.600945,-1.300052,7.854179,-12.872432,-2.794997,52.686920
111662,55.590259,37.673377,-0.257377,-0.593762,7.574057,-12.461614,-3.240704,53.111934
111762,55.590259,37.673377,-0.809240,-0.932542,9.465476,-11.643653,-2.260437,53.571640
111862,55.590259,37.673377,-0.733823,-0.477643,10.295067,-11.776744,-1.273649,52.237205
111962,55.590259,37.673377,-0.647632,-0.496797,10.392033,-11.134569,-1.837582,50.321636
112062,55.590259,37.673377,-0.952892,-0.417788,8.835802,-9.890357,-5.472820,48.520198
112162,55.590259,37.673377,-1.174356,-0.712275,7.461530,-10.405301,-7.546339,47.042766
112262,55.590259,37.673377,-0.459687,-0.337582,8.200141,-12.598216,-4.084046,46.979789
112362,55.590259,37.673377,-0.539892,-0.652420,10.357317,-12.967335,-2.193237,48.176071
112462,55.590259,37.673377,-0.932542,-1.168370,10.825384,-12.803041,-2.642765,50.465087
112562,55.590259,37.673377,-0.930147,-1.655591,10.281900,-12.873628,-3.601638,53.295391
112662,55.590259,37.673377,-0.699107,-1.543063,7.967903,-14.277652,-4.654736,55.588706
112762,55.590259,37.673377,-0.307655,-0.301669,7.277176,-13.065896,-3.452877,56.951828
112862,55.590259,37.673377,-0.168791,-1.104924,9.196129,-12.407646,-0.925833,58.009464
112962,55.590259,37.673377,-1.261744,-0.893037,10.022129,-13.028303,-1.726111,56.872047
113062,55.590259,37.673377,-1.819593,-1.067814,10.577584,-13.518021,-4.174687,55.431770
113162,55.590259,37.673377,-1.928529,-0.693121,9.483433,-13.155552,-6.847993,54.208698
113262,55.590259,37.673377,nan,nan,nan,nan,nan,nan
113362,55.590244,37.673389,nan,nan,nan,nan,nan,nan
113462,55.590244,37.673389,-0.794875,-1.139640,9.260772,-14.631631,-2.209491,53.041950
113562,55.590244,37.673389,-0.556652,-2.102109,10.858902,-12.835492,-0.893055,56.254859
113662,55.590244,37.673389,-1.228225,-1.564611,10.842143,-10.826080,-3.382427,61.112293
113762,55.590244,37.673389,-1.225831,-2.114080,8.704121,-12.731067,-3.806869,67.075088
113862,55.590244,37.673389,-1.162385,-1.559822,7.504625,-13.592053,-2.046846,71.946792
113963,55.590244,37.673389,-0.446519,-1.333570,8.082825,-13.196305,0.411027,75.793884
114063,55.590244,37.673389,-0.527921,-1.470040,9.394848,-12.653398,0.570469,79.564620
114163,55.590244,37.673389,-0.796072,-1.019930,9.712080,-12.810622,-0.375185,81.938110
114263,55.590244,37.673389,-1.843535,-0.559046,9.072828,-13.054665,-2.773828,83.770233
114363,55.590244,37.673389,-1.702277,-1.179144,9.369709,-12.703003,-3.946707,86.861404
114463,55.590244,37.673389,-2.187103,-0.593762,8.864532,-12.988961,-4.165072,90.285354
114563,55.590244,37.673389,-1.120486,-0.266953,8.702923,-13.096309,-1.317519,93.180656
114663,55.590244,37.673389,-1.280898,0.526724,9.192538,-12.300145,-0.002501,93.803764
114763,55.590244,37.673389,-1.535880,0.928950,9.291897,-11.671523,-0.652935,92.171073
114863,55.590244,37.673389,-0.707487,0.029928,9.465476,-12.233232,-0.582245,88.713836
114963,55.590244,37.673389,-0.966060,-0.884657,9.387665,-12.708107,-2.356555,83.863471
115063,55.590244,37.673389,-0.854730,-1.669956,8.950723,-13.704138,-3.162031,79.137573
115163,55.590244,37.673389,-1.024718,-1.513135,8.416816,-14.633811,-5.185284,72.633155
115263,55.590244,37.673389,nan,nan,nan,nan,nan,nan
115363,55.590225,37.673400,nan,nan,nan,nan,nan,nan
115463,55.590225,37.673400,-1.486799,-1.717840,9.976639,-13.825251,-9.527557,57.590061
115563,55.590225,37.673400,-1.405396,-1.487996,10.149022,-13.001064,-9.077971,53.896617
115663,55.590225,37.673400,-1.974019,-0.744597,8.605958,-12.066642,-10.573303,50.992073
115763,55.590225,37.673400,-1.929727,-0.871489,9.279926,-10.236600,-10.849127,50.873165
115863,55.590225,37.673400,-2.151190,-0.551863,8.131907,-11.197400,-12.075753,52.014575
115963,55.590225,37.673400,-1.957260,-1.001973,8.461110,-12.702565,-11.925187,54.940650
116063,55.590225,37.673400,-2.254141,-1.470040,9.771935,-13.896947,-11.441582,60.112491
116163,55.590225,37.673400,-2.364274,-1.681927,8.981848,-14.726085,-11.001156,66.054367
116263,55.590225,37.673400,-2.086547,-2.147599,8.700530,-15.309404,-8.542794,73.236030
116363,55.590225,37.673400,-1.996764,-1.744176,9.631874,-14.333995,-5.727205,78.641197
116463,55.590225,37.673400,-0.889446,-1.587356,8.797494,-14.877813,-2.016982,81.872955
116563,55.590225,37.673400,-0.551863,-1.454478,8.992622,-15.192291,0.113723,84.137596
116663,55.590225,37.673400,-0.525527,-1.431733,8.900445,-15.693079,0.189148,86.721275
116763,55.590225,37.673400,-0.663194,-1.165976,9.058463,-15.298491,0.090007,89.074974
116864,55.590225,37.673400,-0.439336,-1.110910,9.355343,-14.433187,1.045218,91.489006
116964,55.590225,37.673400,-0.231040,-1.074997,9.142260,-13.697834,1.665823,94.237709
117064,55.590225,37.673400,-0.025139,-1.191115,9.208100,-13.267606,2.344476,97.610702
117164,55.590225,37.673400,0.092177,-1.538275,9.367315,-13.497134,2.982100,102.083824
117264,55.590217,37.673404,0.113725,-1.831564,9.178173,-14.071303,3.520483,108.405754
117369,55.590217,37.673404,0.329203,-1.935712,9.071631,-13.942345,4.283747,114.942321
117469,55.590217,37.673404,0.126893,-1.969231,9.443929,-12.871381,4.675261,120.970146
117569,55.590217,37.673404,0.063446,-1.428141,9.078813,-11.616234,4.845908,126.718719
117669,55.590217,37.673404,0.396240,-1.292869,9.155427,-10.236555,5.579703,132.012939
117769,55.590217,37.673404,0.402226,-1.157596,9.278729,-9.648360,6.380694,136.772583
117869,55.590217,37.673404,0.135272,-0.675165,9.424776,-9.308981,7.173222,140.557800
117969,55.590217,37.673404,-0.214281,-0.383072,9.162611,-9.368303,7.282399,144.062057
118069,55.590217,37.673404,-0.506374,0.000000,9.338584,-8.792929,6.750496,147.141448
118169,55.590217,37.673404,-0.866701,0.098162,8.820240,-8.022991,4.685262,150.372863
118269,55.590217,37.673404,-0.397438,0.031125,8.814254,-7.150496,4.306010,153.908065
118369,55.590217,37.673404,-0.245406,-0.035913,9.145851,-6.688002,4.136666,157.762023
118469,55.590217,37.673404,-0.571017,-0.438139,9.684546,-6.482074,4.158206,161.785705
118569,55.590217,37.673404,-0.778116,-0.951695,10.526108,-6.315778,4.395922,165.606964
118669,55.590217,37.673404,-0.312443,-1.004368,9.443929,-6.667260,3.708883,169.994308
118769,55.590217,37.673404,-0.378284,-1.337162,9.064448,-7.485587,3.448014,173.074020
118870,55.590217,37.673404,-0.441730,-0.916979,8.493431,-7.826858,3.044765,174.789291
118970,55.590217,37.673404,-0.049081,-0.999579,9.062054,-7.496402,3.611398,174.887039
119070,55.590217,37.673404,-0.181959,-1.053449,9.473856,-8.286884,3.849694,173.516357
119170,55.590217,37.673404,0.047884,-0.661997,9.686941,-9.628677,4.459200,171.224670
119305,55.590217,37.673404,-0.474052,0.070629,8.615535,-11.834141,1.624793,166.812072
119405,55.590217,37.673404,-1.072602,-0.357933,9.053674,-11.889670,-1.051107,163.866699
119505,55.590217,37.673404,-0.818817,-0.201113,8.529344,-11.875567,-1.715109,162.047943
119605,55.590217,37.673404,-0.040701,-0.146046,8.614338,-11.034588,-0.956153,161.072021
119705,55.590217,37.673404,-0.067038,0.266953,8.829816,-10.674749,-0.668936,160.568908
119805,55.590217,37.673404,-0.240617,0.219069,9.566034,-10.414476,-0.355675,160.118148
119905,55.590217,37.673404,-0.957681,-0.209493,9.994595,-10.118999,-0.717316,158.939178
120005,55.590217,37.673404,-1.128866,-0.707487,10.321404,-9.887654,-2.635357,158.185974
120105,55.590217,37.673404,-0.569820,-1.205481,9.819819,-11.116719,-4.278300,157.948806
120205,55.590217,37.673404,-0.608127,-0.526724,7.929596,-11.822863,-4.542370,156.976776
120305,55.590217,37.673404,-0.183156,-0.707487,8.237252,-10.760703,-4.014543,156.415420
120406,55.590217,37.673404,-0.805649,-0.378284,8.844182,-9.505830,-4.287657,154.913421
120506,55.590217,37.673404,-1.507150,0.075417,9.868900,-8.643178,-5.514402,152.394088
120606,55.590217,37.673404,-2.053028,-0.618901,11.133038,-8.829679,-7.669741,148.617507
120706,55.590217,37.673404,-2.589329,-0.788889,9.191341,-10.004928,-10.507292,145.627258
120806,55.590217,37.673404,-1.423353,-0.848744,7.675811,-10.559056,-10.445054,142.618438
120906,55.590217,37.673404,-0.219069,-0.695516,7.487866,-11.027790,-8.075975,141.608566
121006,55.590217,37.673404,-0.817620,-0.949301,8.870518,-11.520429,-6.859840,142.242019
121106,55.590217,37.673404,-1.684321,-1.363498,10.459071,-12.935413,-5.458329,143.677642
121206,55.590217,37.673404,nan,nan,nan,nan,nan,nan
121306,55.590213,37.673412,nan,nan,nan,nan,nan,nan
121406,55.590213,37.673412,-0.876278,-0.806846,7.171831,-14.603095,-6.797186,147.315490
121506,55.590213,37.673412,-0.533907,-0.718261,7.711724,-12.925971,-6.035130,147.749084
121606,55.590213,37.673412,-1.884237,-0.497994,9.434352,-11.381749,-5.469537,145.819961
121706,55.590213,37.673412,-2.149993,-0.591368,11.283873,-11.441388,-5.918191,143.353805
121806,55.590213,37.673412,-1.778892,-0.118513,9.777920,-11.966706,-9.250432,141.590789
121906,55.590213,37.673412,-1.352724,-0.604536,7.718906,-12.831541,-11.375079,139.979644
122006,55.590213,37.673412,-0.952892,-0.269348,7.593211,-12.893938,-9.515896,139.187301
122106,55.590213,37.673412,-1.035492,-0.468066,8.893262,-12.408735,-6.875963,139.236373
122206,55.590213,37.673412,-1.729811,-1.054646,10.321404,-12.072792,-5.804647,139.843917
122306,55.590213,37.673412,-1.482011,-1.553837,10.685322,-12.833544,-6.576733,140.626190
122406,55.590213,37.673412,-0.475249,-2.393005,9.374497,-14.399749,-7.090235,141.999893
122506,55.590213,37.673412,-0.584185,-0.910994,7.362170,-13.986188,-7.884735,141.810638
122606,55.590213,37.673412,-0.727837,-0.818817,7.760805,-13.401783,-6.750664,142.143203
122706,55.590213,37.673412,-1.786075,-1.043872,9.527726,-13.171808,-6.098689,141.238906
122806,55.590213,37.673412,-2.480393,-1.082179,11.549630,-12.900196,-6.572746,139.198913
122906,55.590213,37.673412,-1.637634,-0.517148,9.824607,-13.294523,-7.885053,138.490203
123006,55.590213,37.673412,-1.388637,-0.525527,7.638700,-13.478230,-10.562191,137.417022
123106,55.590213,37.673412,-0.994791,-0.363919,7.800309,-13.707416,-8.759821,137.620544
123206,55.590213,37.673412,-1.218649,-0.894234,9.400834,-14.375429,-6.254160,138.746917
123343,55.590213,37.673412,nan,nan,nan,nan,nan,nan
123443,55.590213,37.673412,-1.447295,-2.372654,10.107123,-14.906872,-7.988616,142.284286
123543,55.590213,37.673412,-0.980426,-1.516727,7.614758,-15.043452,-7.865797,142.266189
123643,55.590213,37.673412,-0.307655,-0.835576,7.359776,-13.721658,-6.082051,142.332550
123743,55.590213,37.673412,-0.580594,-0.738611,8.445547,-13.192220,-5.656602,141.666915
123843,55.590213,37.673412,-1.334767,-1.277307,9.738416,-13.928888,-6.052171,140.526748
123943,55.590213,37.673412,-0.890643,-1.498770,11.355699,-13.901391,-5.392358,139.229934
124043,55.590213,37.673412,-1.630451,-1.092953,9.204509,-14.141354,-8.559452,136.678405
124143,55.590213,37.673412,-0.891840,-1.306037,7.849390,-13.799736,-9.654203,135.497634
124243,55.590213,37.673412,-0.414197,-0.925359,7.503428,-13.438951,-8.554713,136.278366
124343,55.590213,37.673412,-1.327585,-1.005565,9.150639,-12.335463,-7.224526,138.215835
124443,55.590213,37.673412,-2.060210,-1.630451,11.525688,-12.554574,-6.569309,140.420120
124544,55.590213,37.673412,-1.061828,-2.037466,10.569204,-15.057900,-5.931494,144.321456
124644,55.590213,37.673412,0.192733,-2.140416,8.226477,-16.730077,-5.528380,146.630065
124744,55.590213,37.673412,-0.129287,-0.894234,6.817489,-15.259564,-5.763026,147.933044
124844,55.590213,37.673412,-1.154005,-0.831985,8.650251,-13.083556,-5.638728,148.412765
124944,55.590213,37.673412,-2.152387,-0.932542,10.298659,-12.206018,-5.397915,146.769638
125044,55.590213,37.673412,-2.009932,-1.209072,10.822989,-13.549572,-5.593895,144.011276
125144,55.590213,37.673412,-1.771709,-0.581791,9.488222,-14.410593,-8.603305,142.239822
125248,55.590213,37.673412,-1.262941,-0.456095,7.316680,-14.195048,-9.924571,142.029541
125391,55.590202,37.673393,nan,nan,nan,nan,nan,nan
125491,55.590202,37.673393,-1.754950,-0.741005,10.122685,-13.219844,-4.968554,143.892318
125591,55.590202,37.673393,-1.328782,-1.529895,10.469844,-13.711358,-4.045794,145.664093
125691,55.590202,37.673393,-1.041478,-1.753753,9.715671,-14.324339,-4.995995,146.908569
125791,55.590202,37.673393,-0.791284,-0.870292,7.171831,-15.687455,-6.937295,147.477066
125891,55.590202,37.673393,-0.292093,-1.023521,7.906851,-15.009243,-6.615614,147.424865
125991,55.590202,37.673393,-1.302446,-1.011550,9.378088,-14.408200,-5.873565,146.119827
126091,55.590202,37.673393,-1.465251,-1.256956,10.533290,-13.582901,-5.260595,145.183288
126191,55.590202,37.673393,-2.112883,-1.053449,10.445902,-13.350719,-6.634917,143.286682
126291,55.590202,37.673393,-1.873463,-1.192312,8.854955,-13.401926,-10.518683,141.429412
126391,55.590202,37.673393,-0.780510,-0.882263,7.165846,-13.528287,-9.881707,141.558502
126491,55.590202,37.673393,-0.902614,-0.326809,8.690953,-12.574732,-7.678502,141.807281
126592,55.590202,37.673393,-1.801637,-0.647632,10.249578,-12.071836,-6.109268,143.019897
126692,55.590202,37.673393,-1.612495,-1.782483,11.004948,-13.837048,-5.147050,144.864212
126792,55.590202,37.673393,-0.806846,-1.875857,9.531317,-15.433638,-5.160079,146.654754
126892,55.590202,37.673393,-0.841562,-1.425747,7.951144,-16.087963,-5.548190,147.486007
126992,55.590202,37.673393,-0.403423,-0.423774,7.420828,-14.326673,-5.321819,147.595611
127092,55.590202,37.673393,-0.497994,-0.697910,9.449914,-12.793653,-3.345829,146.339248
127192,55.590202,37.673393,-1.010353,-0.614113,10.083181,-12.674642,-2.806920,143.213165
127292,55.590202,37.673393,nan,nan,nan,nan,nan,nan
127392,55.590202,37.673370,nan,nan,nan,nan,nan,nan
127492,55.590202,37.673370,-0.711078,-1.095347,7.589619,-15.577757,-9.230846,135.789657
127592,55.590202,37.673370,-0.323217,-0.724246,7.969100,-16.078897,-7.389199,136.455917
127692,55.590202,37.673370,-1.461660,-1.358709,10.333375,-15.574677,-5.674730,138.323715
127792,55.590202,37.673370,-1.430536,-1.863886,11.565192,-16.288511,-2.903327,140.939361
127892,55.590202,37.673370,-1.035492,-1.914164,10.068816,-16.757846,-4.155869,143.819030
127992,55.590202,37.673370,-1.094150,-1.465251,7.924808,-17.565931,-5.747459,145.295440
128092,55.590202,37.673370,-0.902614,-0.184354,7.170634,-16.474063,-6.550271,146.175598
128192,55.590202,37.673370,-1.258153,-0.612916,8.914811,-14.786129,-5.788011,145.980743
128292,55.590202,37.673370,-2.361880,-0.937330,10.704476,-13.825741,-5.892539,142.705413
128392,55.590202,37.673370,-2.205060,-1.254562,10.517728,-14.676882,-7.931194,139.194869
128492,55.590202,37.673370,-1.707066,-1.770512,9.730036,-15.531205,-9.899476,136.083358
128592,55.590202,37.673370,-1.080982,-1.528698,7.501034,-16.489017,-11.749937,133.646469
128692,55.590202,37.673370,0.172383,-1.375469,7.273585,-17.440818,-8.488595,133.521499
128792,55.590202,37.673370,-1.077391,-2.068590,10.170569,-16.582801,-5.851997,134.647720
128892,55.590202,37.673370,-1.569399,-2.546233,11.733983,-16.442174,-5.000869,136.737762
128992,55.590202,37.673370,-0.927753,-2.582147,9.672575,-17.327928,-5.692066,139.653656
129092,55.590202,37.673370,-1.025915,-1.716643,7.741651,-17.919929,-6.265563,141.020996
129192,55.590202,37.673370,-0.577003,-0.371101,7.141904,-16.166915,-5.848141,141.433914
129292,55.590202,37.673370,nan,nan,nan,nan,nan,nan
129392,55.590194,37.673343,nan,nan,nan,nan,nan,nan
129492,55.590194,37.673343,-1.839944,-0.967257,10.530897,-13.655880,-7.216364,136.666748
129592,55.590194,37.673343,-1.429338,-1.073799,9.334993,-13.612801,-10.106249,134.238800
129692,55.590194,37.673343,-0.824802,-1.021127,7.423223,-13.825201,-11.062829,132.250091
129792,55.590194,37.673343,-0.621295,-0.933739,8.335413,-14.364997,-7.577514,132.627410
129892,55.590194,37.673343,-1.470040,-1.792060,10.195709,-14.617550,-5.088448,134.532424
129992,55.590194,37.673343,-1.454478,-1.302446,11.480197,-14.131683,-3.420305,137.306701
130092,55.590194,37.673343,-1.382651,-1.598130,10.037691,-13.567515,-4.781273,139.409942
130192,55.590194,37.673343,-0.842759,-0.836773,7.055712,-14.794944,-6.077845,140.014480
130292,55.590194,37.673343,-0.975637,0.052672,6.967127,-13.156640,-6.795259,138.593750
130392,55.590194,37.673343,-0.647632,-0.533907,9.277532,-11.966294,-5.448640,136.923950
130492,55.590194,37.673343,-1.746570,-0.900220,10.856508,-11.694108,-7.620244,133.353240
130592,55.590194,37.673343,-2.394202,-0.934936,10.327389,-12.371950,-10.194395,130.339843
130692,55.590194,37.673343,-1.468843,-1.151611,8.602367,-13.427207,-12.706152,128.372299
130792,55.590194,37.673343,-0.611719,-1.249773,7.158663,-14.541293,-12.078308,127.802093
130892,55.590194,37.673343,-0.610521,-1.053449,8.419211,-14.302042,-8.537350,128.558975
130992,55.590194,37.673343,-1.574188,-1.347936,10.536882,-13.906933,-5.674224,130.422927
131092,55.590194,37.673343,-1.338359,-0.695516,11.482592,-13.991305,-3.706555,133.094787
131192,55.590194,37.673343,-1.089362,-2.580950,9.725248,-15.215226,-5.113746,135.017379
131292,55.590194,37.673343,-0.815226,-0.875081,6.625953,-15.928470,-6.557042,135.194458
131423,55.590190,37.673313,-0.574608,-0.903811,8.373721,-13.623615,-5.479403,135.263946
131523,55.590190,37.673313,-1.405396,-1.061828,10.371683,-13.208914,-4.216911,133.390884
131623,55.590190,37.673313,-1.460463,-0.970849,10.958262,-12.633953,-4.985694,131.537719
131723,55.590190,37.673313,-1.668759,-0.691924,9.993398,-12.700452,-7.878200,130.250549
131823,55.590190,37.673313,-0.402226,-1.029507,7.034164,-14.044653,-9.899764,129.834915
131923,55.590190,37.673313,-0.636858,-0.729034,7.655460,-13.921143,-8.869725,130.176284
132023,55.590190,37.673313,-1.254562,-1.150414,9.495405,-14.070337,-5.803242,132.760086
132123,55.590190,37.673313,-1.280898,-1.918953,11.637018,-14.136052,-3.380185,136.350357
132224,55.590190,37.673313,-1.485602,-1.975216,10.223241,-14.915828,-4.626196,140.089797
132324,55.590190,37.673313,-0.871489,-1.473631,7.672219,-16.190031,-4.668722,143.444778
132424,55.590190,37.673313,-0.391452,-0.458490,7.271191,-14.548064,-3.649065,145.141296
132524,55.590190,37.673313,-0.794875,-0.462081,8.995017,-12.438798,-3.369226,145.029998
132624,55.590190,37.673313,-2.076970,-0.713472,10.430340,-12.038549,-5.590662,143.023422
132724,55.590190,37.673313,-2.190695,-1.012747,10.376471,-13.072337,-7.775062,141.546813
132824,55.590190,37.673313,-2.043451,-0.954089,9.153034,-13.230003,-9.895323,140.137298
132924,55.590190,37.673313,-0.937330,-0.842759,7.240066,-13.737327,-8.789083,139.298828
133024,55.590190,37.673313,-0.165200,-0.581791,8.122330,-13.870052,-5.563250,139.390350
133124,55.590190,37.673313,-1.025915,-1.289278,10.034100,-14.499397,-4.464689,141.280120
133224,55.590190,37.673313,-1.690306,-2.019509,11.652580,-14.700029,-4.339681,143.739852
133365,55.590190,37.673313,nan,nan,nan,nan,nan,nan
133465,55.590190,37.673313,-0.513556,-0.851139,6.493075,-15.577410,-3.309753,150.087982
133565,55.590190,37.673313,-0.371101,-0.578200,8.127119,-14.056313,-3.219492,152.311447
133665,55.590190,37.673313,-1.388637,-1.004368,9.813834,-13.002213,-4.192420,151.677642
133765,55.590190,37.673313,-1.890222,-1.019930,11.111491,-12.801255,-5.576547,149.636764
133865,55.590190,37.673313,-2.299631,-0.797269,9.688138,-13.465109,-8.299795,147.977569
133965,55.590190,37.673313,-1.395820,-0.913388,7.915231,-13.817651,-9.254873,146.052551
134065,55.590190,37.673313,-0.799663,-0.846350,7.677008,-14.611573,-8.071526,144.956741
134165,55.590190,37.673313,-0.895431,-0.949301,8.698135,-14.846096,-5.882147,145.266647
134265,55.590190,37.673313,-1.265336,-1.356315,10.799047,-14.209157,-3.878168,146.897476
134365,55.590190,37.673313,-1.681927,-2.085350,11.343729,-14.897361,-3.125876,148.936187
134465,55.590190,37.673313,-0.240617,-1.800440,8.974665,-15.635904,-1.572685,151.180572
134565,55.590190,37.673313,-0.056264,-0.831985,6.910863,-15.612364,-1.903390,152.799819
134665,55.590190,37.673313,-0.205901,-0.393846,7.649475,-13.352368,-2.463086,153.816390
134765,55.590190,37.673313,-1.286883,-0.650026,10.043677,-11.232891,-2.780867,153.633270
134865,55.590190,37.673313,-1.179144,-0.371101,10.709264,-10.326709,-3.420729,151.788986
134965,55.590190,37.673313,-1.679533,-0.645237,9.967062,-10.484109,-5.092374,150.026153
135065,55.590190,37.673313,-0.982820,-0.436942,8.194156,-11.495326,-6.998619,148.530166
135165,55.590190,37.673313,-0.225055,-0.343568,7.138312,-12.263540,-5.998145,147.845153
135265,55.590190,37.673313,nan,nan,nan,nan,nan,nan
135367,55.590171,37.673244,-0.691924,-1.149217,10.978612,-12.333926,-1.778955,151.183547
135467,55.590171,37.673244,-0.781707,-1.327585,11.000160,-12.823189,-1.705530,153.600555
135567,55.590171,37.673244,-0.055067,-1.881842,9.166202,-14.052284,-0.734159,156.871124
135667,55.590171,37.673244,-0.234632,-0.890643,7.001843,-14.129585,-0.255844,158.542190
135767,55.590171,37.673244,0.041899,-0.543484,7.363368,-13.156522,-0.149372,160.031997
135867,55.590171,37.673244,-0.984017,-0.644040,9.636662,-12.040455,-1.467019,159.735260
135967,55.590171,37.673244,-1.738190,-0.724246,11.067198,-12.197464,-3.732393,157.740097
136067,55.590171,37.673244,-1.576582,-0.779313,10.249578,-12.810274,-5.694872,155.335281
136167,55.590171,37.673244,-0.810437,-0.790087,8.110359,-12.959774,-7.418602,153.198120
136267,55.590171,37.673244,-0.565032,-0.863110,7.412448,-14.051809,-7.113420,152.452789
136367,55.590171,37.673244,-0.793678,-1.012747,8.674193,-14.988256,-4.922508,153.188812
136467,55.590171,37.673244,-1.379060,-1.766921,10.505758,-15.325652,-4.241717,155.281326
136567,55.590171,37.673244,-1.871069,-2.072181,11.477804,-15.398441,-5.282596,156.414123
136667,55.590171,37.673244,-0.365116,-2.188300,9.354146,-16.038028,-2.715058,159.568222
136767,55.590171,37.673244,0.225055,-1.218649,6.537368,-16.132343,-1.062530,161.817626
136867,55.590171,37.673244,0.057461,-0.569820,7.396886,-14.289607,-0.793683,163.853820
136967,55.590171,37.673244,-0.760159,-1.067814,9.622297,-13.395212,-0.427933,165.012588
137067,55.590171,37.673244,-0.934936,-0.854730,10.778697,-13.832900,-1.650701,163.595474
137167,55.590171,37.673244,-1.678335,-1.088165,10.342952,-14.800180,-4.542175,161.603179
137267,55.590171,37.673244,-1.013944,-1.109712,8.190565,-15.120971,-6.097291,159.574218
137403,55.590164,37.673194,-0.790087,-0.955286,8.009802,-14.282555,-4.592565,159.295501
137503,55.590164,37.673194,-1.546654,-1.100136,9.556456,-13.320446,-4.205188,159.969360
137603,55.590164,37.673194,-0.645237,-1.604115,10.381259,-13.815356,-2.706248,162.982467
137703,55.590164,37.673194,-1.376666,-1.765724,10.477027,-14.669916,-3.715404,165.260665
137803,55.590164,37.673194,-1.227028,-1.957260,8.437168,-16.515829,-5.421088,167.367462
137903,55.590164,37.673194,-0.378284,-1.053449,7.402872,-15.629742,-5.002498,167.921783
138003,55.590164,37.673194,0.032322,-1.083376,8.279150,-14.624959,-3.851241,168.396347
138103,55.590164,37.673194,-1.259350,-1.206678,9.467871,-14.700421,-4.253814,167.945388
138203,55.590164,37.673194,-2.165555,-1.515530,11.259931,-14.867416,-5.085134,166.973800
138303,55.590164,37.673194,-2.063802,-1.448492,9.938332,-15.669508,-6.704245,166.107131
138403,55.590164,37.673194,-1.211466,-1.332373,7.934384,-15.839059,-8.178429,165.513412
138503,55.590164,37.673194,-0.594959,-0.781707,7.620744,-15.536210,-7.010972,166.109024
138603,55.590164,37.673194,-0.700304,-1.061828,9.039309,-15.711192,-4.511722,167.544067
138703,55.590164,37.673194,-1.401805,-1.756147,10.529700,-16.513145,-2.724434,169.550262
138803,55.590164,37.673194,-1.654393,-2.372654,10.061634,-16.605720,-3.989791,171.235794
138903,55.590164,37.673194,-1.225831,-2.360683,9.126697,-16.871820,-4.788139,172.798171
139003,55.590164,37.673194,-0.891840,-1.200692,7.296329,-17.437875,-5.634080,173.051086
139103,55.590164,37.673194,-0.211887,-0.993594,7.890092,-17.005092,-4.530846,173.513793
139203,55.590164,37.673194,nan,nan,nan,nan,nan,nan
139303,55.590164,37.673152,nan,nan,nan,nan,nan,nan
139403,55.590164,37.673152,-2.303222,-1.429338,9.931149,-15.874655,-7.280944,169.178237
139503,55.590164,37.673152,-1.762132,-1.192312,8.243237,-16.299718,-8.843634,167.649093
139603,55.590164,37.673152,-0.717063,-1.007959,7.657854,-16.837835,-7.514888,167.588287
139703,55.590164,37.673152,-0.876278,-0.659603,8.380904,-16.972169,-6.432174,168.091979
139803,55.590164,37.673152,-1.683124,-1.467646,9.889250,-16.859012,-5.462390,169.674865
139904,55.590164,37.673152,-1.835156,-2.217031,11.164163,-17.080005,-4.611092,171.143737
140004,55.590164,37.673152,-1.088165,-1.833959,9.385272,-17.629674,-4.969858,173.081283
140104,55.590164,37.673152,-1.369483,-1.628057,8.230069,-18.040330,-6.135935,173.397293
140204,55.590164,37.673152,-0.401029,-0.951695,7.684190,-17.589078,-5.431535,173.783889
140304,55.590164,37.673152,-0.787692,-1.222240,9.054871,-16.961702,-5.189149,173.621124
140404,55.590164,37.673152,-1.985990,-1.364695,9.774329,-16.458837,-5.989593,172.096206
140504,55.590164,37.673152,-2.079364,-1.246182,10.230424,-15.122349,-6.428860,169.962097
140604,55.590164,37.673152,-1.576582,-0.487220,9.039309,-14.337696,-7.733415,167.355041
140704,55.590164,37.673152,-0.609324,-0.987608,7.727286,-14.807073,-9.670751,164.813201
140804,55.590164,37.673152,-0.543484,-0.962469,8.034941,-15.731103,-8.304616,163.602432
140904,55.590164,37.673152,-0.982820,-1.572990,9.714474,-16.201557,-6.499696,164.568557
141004,55.590164,37.673152,-1.686715,-2.233790,11.748348,-16.276878,-6.121403,166.571014
141104,55.590164,37.673152,-1.253365,-2.511518,9.927557,-18.060087,-6.515823,169.808868
141204,55.590164,37.673152,-0.398635,-2.333150,7.800309,-19.001987,-5.500994,173.078460
141348,55.590160,37.673114,nan,nan,nan,nan,nan,nan
141448,55.590160,37.673114,-1.889025,-1.282095,9.758767,-15.464862,-5.695942,175.439682
141548,55.590160,37.673114,-1.666364,-1.169568,10.336966,-15.268411,-5.775187,173.263656
141648,55.590160,37.673114,-1.922544,-0.984017,9.878477,-15.332323,-7.879479,169.824371
141748,55.590160,37.673114,-1.727416,-1.429338,8.598776,-16.201921,-11.566618,166.956390
141848,55.590160,37.673114,-1.071405,-1.422156,7.576451,-17.224220,-9.788832,165.154281
141948,55.590160,37.673114,-0.675165,-1.334767,8.554483,-16.933731,-6.247303,165.624588
142048,55.590160,37.673114,-1.595735,-2.114080,10.253170,-16.698057,-5.318789,167.220855
142148,55.590160,37.673114,-2.057816,-2.311602,10.961853,-17.546958,-5.655852,168.785278
142248,55.590160,37.673114,-0.788889,-2.476802,8.948329,-18.716831,-5.251571,170.647384
142348,55.590160,37.673114,-0.329203,-1.224634,6.646304,-18.270994,-5.956749,171.210021
142448,55.590160,37.673114,-0.671574,-0.903811,8.006211,-16.683296,-6.627299,172.029800
142548,55.590160,37.673114,-2.001553,-1.414973,9.852141,-16.333751,-6.790408,171.171417
142648,55.590160,37.673114,-1.625663,-1.447295,10.533290,-16.793991,-6.277817,169.449691
142748,55.590160,37.673114,-1.741782,-1.310825,9.198523,-17.011407,-8.477355,167.242294
142848,55.590160,37.673114,-1.318008,-1.351527,8.458715,-16.513515,-10.013913,165.869598
142948,55.590160,37.673114,-0.737414,-1.045069,7.509414,-16.957647,-8.785131,165.504577
143048,55.590160,37.673114,-0.893037,-1.209072,8.556878,-17.204008,-6.938418,166.506530
143148,55.590160,37.673114,-1.873463,-1.759738,10.206482,-16.795692,-6.257030,168.652435
143248,55.590160,37.673114,nan,nan,nan,nan,nan,nan
143348,55.590152,37.673072,nan,nan,nan,nan,nan,nan
143448,55.590152,37.673072,-0.834379,-1.291672,6.926425,-18.492481,-4.676429,173.506347
143548,55.590152,37.673072,-0.436942,-0.695516,7.756016,-16.686899,-4.102188,174.255813
143648,55.590152,37.673072,-1.271321,-1.174356,9.394848,-15.685230,-4.569381,173.115783
143748,55.590152,37.673072,-2.173935,-1.477222,10.975021,-15.358066,-6.811952,168.847198
143848,55.590152,37.673072,-2.254141,-1.185130,9.610326,-16.379133,-10.281682,164.748474
143948,55.590152,37.673072,-2.152387,-1.565808,8.506599,-17.140460,-11.560375,161.276443
144048,55.590152,37.673072,-0.439336,-1.266533,7.246051,-17.587253,-9.274707,158.649703
144148,55.590152,37.673072,-0.136470,-1.370680,8.622718,-17.261602,-6.779545,157.498641
144248,55.590152,37.673072,-0.633266,-2.345121,10.347741,-17.625432,-5.867866,158.212081
144348,55.590152,37.673072,-1.122881,-3.053804,11.183317,-18.113161,-5.617229,160.398757
144448,55.590152,37.673072,-0.604536,-2.583344,9.202115,-18.680286,-5.141601,164.549423
144548,55.590152,37.673072,-0.721852,-1.795651,7.480683,-18.452535,-5.251541,168.150619
144648,55.590152,37.673072,-0.675165,-0.594959,7.295133,-16.846870,-4.135847,171.273620
144748,55.590152,37.673072,-0.930147,-0.855927,9.123106,-15.042320,-3.631916,172.554122
144848,55.590152,37.673072,-2.114080,-0.705092,10.479421,-14.756456,-6.426054,170.196304
144948,55.590152,37.673072,-2.330755,-1.060631,9.971851,-16.322818,-9.487221,167.578979
145048,55.590152,37.673072,-2.387019,-1.323994,8.937556,-17.860692,-11.251622,166.355194
145148,55.590152,37.673072,-1.763329,-1.351527,7.727286,-18.522939,-9.723520,164.609069
145252,55.590152,37.673072,-0.252588,-1.350330,8.682573,-17.161430,-4.427667,163.434951
145394,55.590145,37.673038,-0.664391,-2.176329,10.589554,-16.599123,-3.094182,163.955764
145494,55.590145,37.673038,-0.331597,-2.931700,10.010158,-17.779729,-2.049086,166.740570
145594,55.590145,37.673038,0.241814,-2.474407,8.189368,-19.104305,-0.984441,169.614593
145694,55.590145,37.673038,0.486023,-1.410185,6.731298,-18.707397,-0.548438,171.532455
145794,55.590145,37.673038,-0.252588,-1.244985,8.488642,-17.207584,-0.859825,173.473739
145894,55.590145,37.673038,-1.624466,-1.369483,10.311827,-17.199218,-2.319250,172.508804
145994,55.590145,37.673038,-2.055422,-1.520318,11.227609,-18.101589,-4.605933,169.883926
146094,55.590145,37.673038,-2.229002,-1.412579,9.605538,-19.169643,-7.892189,166.317916
146194,55.590145,37.673038,-0.870292,-1.543063,7.393295,-19.413562,-7.596119,162.152725
146294,55.590145,37.673038,0.622492,-1.529895,7.521385,-18.084253,-4.295257,159.173217
146394,55.590145,37.673038,0.095768,-1.679533,9.573216,-16.642030,-3.393702,158.508453
146494,55.590145,37.673038,-0.283713,-2.516306,11.432313,-17.027818,-3.016718,160.137161
146594,55.590145,37.673038,-0.639252,-2.975993,9.986216,-18.680818,-3.479772,163.211547
146694,55.590145,37.673038,0.029928,-2.195483,8.055292,-18.705486,-1.548890,167.116989
146794,55.590145,37.673038,-0.061052,-0.932542,7.062895,-16.985404,-0.474078,170.070159
146894,55.590145,37.673038,-0.433350,-0.706290,8.418014,-15.249353,-0.084574,171.882873
146994,55.590145,37.673038,-1.328782,-0.811634,9.914390,-15.526416,-2.081187,170.906951
147094,55.590145,37.673038,-2.074576,-1.565808,11.210850,-17.311286,-5.878503,167.327728
147194,55.590145,37.673038,-2.079364,-1.458069,8.972271,-19.090726,-8.506131,164.883819
147324,55.590145,37.673038,nan,nan,nan,nan,nan,nan
147424,55.590145,37.673038,-0.453701,-1.276109,8.248025,-17.722208,-3.936187,161.863952
147524,55.590145,37.673038,-0.866701,-1.924938,9.907207,-17.088087,-2.021501,162.618148
147624,55.590145,37.673038,-0.441730,-2.788048,10.896013,-17.588811,-0.737445,164.478378
147724,55.590145,37.673038,0.355539,-2.712630,9.184158,-18.153907,-1.282905,166.720184
147824,55.590145,37.673038,-0.447716,-1.392228,7.322666,-18.230539,-3.176613,168.412673
147924,55.590145,37.673038,-0.670376,-0.080206,7.918822,-16.784910,-2.667947,170.587860
148024,55.590145,37.673038,-1.137246,-0.331597,9.789891,-15.699220,-2.405305,169.951278
148124,55.590145,37.673038,-1.655591,-0.378284,10.844537,-15.061834,-3.304611,165.920120
148224,55.590145,37.673038,-1.923741,-1.186327,9.843761,-16.065217,-5.651399,161.336059
148324,55.590145,37.673038,-1.993173,-1.132457,8.358159,-16.594106,-8.097927,155.587356
148424,55.590145,37.673038,-0.749385,-1.124078,7.249643,-17.085632,-7.869006,151.674880
148524,55.590145,37.673038,-0.609324,-1.441309,8.566454,-16.772256,-7.123137,149.097335
148624,55.590145,37.673038,-1.349133,-1.948880,10.052057,-16.374359,-7.105281,147.925094
148724,55.590145,37.673038,-0.846350,-1.624466,10.381259,-15.909088,-4.939330,148.303695
148824,55.590145,37.673038,-1.181539,-1.741782,9.441534,-16.260446,-6.136126,147.305343
148924,55.590145,37.673038,-0.972046,-1.318008,7.453150,-17.862009,-8.136574,145.603118
149024,55.590145,37.673038,-0.221464,-1.073799,6.799533,-17.932621,-8.089232,143.169097
149124,55.590145,37.673038,0.102951,-0.610521,7.753622,-16.319084,-8.623474,139.410034
149224,55.590145,37.673038,nan,nan,nan,nan,nan,nan
149324,55.590137,37.672966,nan,nan,nan,nan,nan,nan
149424,55.590137,37.672966,-0.499191,-1.051055,11.552023,-8.933755,-6.862288,129.869201
149524,55.590137,37.672966,-0.950498,-1.328782,10.117897,-10.284019,-10.876633,129.211822
149624,55.590137,37.672966,0.413000,-1.323994,8.674193,-12.306812,-10.329212,131.450149
149724,55.590137,37.672966,-1.110910,-1.556231,9.469068,-13.008546,-8.486857,134.441833
149824,55.590137,37.672966,-1.290475,-2.171541,12.148180,-13.243449,-4.803550,139.040420
149924,55.590137,37.672966,-1.742979,-2.516306,10.262746,-15.768700,-5.157981,143.776306
150024,55.590137,37.672966,-0.521936,-1.523909,7.171831,-16.500852,-3.724457,148.945159
150124,55.590137,37.672966,-0.638055,-0.451307,6.782773,-14.656225,-2.691529,152.589202
150224,55.590137,37.672966,-0.882263,-0.105345,8.184579,-12.322990,-1.767140,153.617935
150324,55.590137,37.672966,-1.878251,-0.515950,10.204088,-12.019414,-4.606374,151.465774
150424,55.590137,37.672966,-2.467225,-0.782904,10.467451,-12.759495,-8.976571,148.239486
150524,55.590137,37.672966,-2.992752,-1.318008,10.188526,-14.074995,-13.251439,144.102691
