time_ms,lat,lon,alt_m,speed_mps,sats,fix,ax,ay,az,gx,gy,gz,acc_nav_x,acc_nav_y,acc_nav_z,roll_deg,pitch_deg,yaw_deg
442,nan,nan,nan,nan,0,0,1.001973,-0.111330,9.311051,-5.954198,-3.938931,-0.793893,0.995557,-0.101792,-0.494802,-0.0595,-0.0394,-0.0079
542,nan,nan,nan,nan,0,0,0.979228,-0.057461,9.141062,-3.358778,2.732824,-0.717557,1.016531,0.004199,-0.669481,-0.3954,0.2338,-0.0800
642,nan,nan,nan,nan,0,0,0.906205,-0.256180,9.301474,-4.503816,-1.007634,0.213740,0.927713,-0.119809,-0.504540,-0.8457,0.1332,-0.0579
742,nan,nan,nan,nan,0,0,0.998382,-0.223858,9.374497,-4.167939,-1.938931,-0.152672,0.988394,-0.018471,-0.428441,-1.2625,-0.0609,-0.0703
842,nan,nan,nan,nan,0,0,0.919373,-0.150835,9.211691,-5.221374,-0.320611,-0.274809,0.904560,0.134576,-0.593241,-1.7846,-0.0936,-0.0971
942,nan,nan,nan,nan,0,0,1.000776,-0.098162,9.042901,-4.778625,1.038168,-0.625954,1.002812,0.256035,-0.767067,-2.2623,0.0083,-0.1629
1042,nan,nan,nan,nan,0,0,1.057040,-0.254982,9.435549,-5.923664,-3.312977,0.488550,1.004559,0.213487,-0.364340,-2.8547,-0.3208,-0.1010
1142,nan,nan,nan,nan,0,0,0.946907,-0.067038,9.425972,-5.816794,-1.877863,0.717557,0.864108,0.497851,-0.385634,-3.4368,-0.5048,-0.0200
1242,nan,nan,nan,nan,0,0,0.895431,-0.241814,9.068039,-6.931298,-3.206107,0.259542,0.764948,0.412285,-0.732815,-4.1304,-0.8233,0.0252
1342,nan,nan,nan,nan,0,0,0.940921,-0.209493,9.012972,-5.221374,-2.320611,-0.290076,0.774638,0.522408,-0.790558,-4.6523,-1.0569,0.0129
1442,nan,nan,nan,nan,0,0,0.967257,-0.287304,9.301474,-5.145038,-1.404580,0.091603,0.772810,0.552030,-0.498934,-5.1672,-1.1961,0.0335
1542,nan,nan,nan,nan,0,0,0.916979,-0.199916,9.258378,-6.503817,-2.351145,-0.503817,0.685496,0.739515,-0.555618,-5.8170,-1.4348,0.0045
1642,nan,nan,nan,nan,0,0,0.969652,-0.146046,9.150639,-5.236641,0.625954,-0.076336,0.751164,0.865260,-0.675230,-6.3403,-1.3733,-0.0095
1742,nan,nan,nan,nan,0,0,0.931344,-0.264559,9.143457,-4.809160,-0.870229,-0.839695,0.698675,0.822000,-0.675584,-6.8194,-1.4691,-0.0833
1842,nan,nan,nan,nan,0,0,0.937330,-0.286107,9.260772,-3.419847,1.022901,-1.007634,0.717962,0.867714,-0.562520,-7.1586,-1.3795,-0.1956
1942,nan,nan,nan,nan,0,0,0.933739,-0.167594,9.306262,-6.870229,-4.427481,-0.122137,0.642637,1.102774,-0.539645,-7.8466,-1.8203,-0.1525
2042,nan,nan,nan,nan,0,0,0.939724,-0.197522,8.998607,-5.022900,-0.427481,-1.465649,0.651429,1.107181,-0.848591,-8.3445,-1.8826,-0.2919
2142,nan,nan,nan,nan,0,0,0.938527,-0.217872,9.238028,-4.900763,-0.366412,-0.641221,0.637064,1.199330,-0.618330,-8.8326,-1.9282,-0.3501
2245,nan,nan,nan,nan,0,0,1.028310,-0.064643,9.418790,-5.633588,-0.763359,-0.106870,0.710774,1.472358,-0.473796,-9.4129,-2.0076,-0.3489
2345,nan,nan,nan,nan,0,0,0.924162,-0.243011,9.149442,-5.969466,1.129771,-0.473282,0.632651,1.346129,-0.728483,-10.0076,-1.9039,-0.4141
2445,nan,nan,nan,nan,0,0,0.922965,-0.197522,9.136274,-5.236641,1.038168,-0.152672,0.650053,1.470459,-0.763555,-10.5302,-1.8043,-0.4472
2545,nan,nan,nan,nan,0,0,0.908600,-0.093374,9.263167,-5.801526,-2.122137,-0.396947,0.600188,1.688740,-0.672731,-11.1103,-2.0202,-0.4474
2646,nan,nan,nan,nan,0,0,0.909797,-0.167594,9.226057,-6.045802,-1.816794,-0.656488,0.573191,1.705249,-0.710523,-11.7199,-2.2130,-0.4772
2746,nan,nan,nan,nan,0,0,1.054646,-0.208296,9.329008,-5.160305,-2.335878,-0.396947,0.676579,1.768182,-0.608725,-12.2363,-2.4498,-0.4686
2846,nan,nan,nan,nan,0,0,0.937330,-0.198719,9.296686,-4.259542,1.175572,0.091603,0.581120,1.839015,-0.661883,-12.6615,-2.3330,-0.4846
2946,nan,nan,nan,nan,0,0,1.023521,-0.190339,9.279926,-4.687023,-0.580153,-0.778626,0.659662,1.916084,-0.691041,-13.1277,-2.4066,-0.5479
3046,nan,nan,nan,nan,0,0,1.016339,-0.240617,9.354146,-3.480916,0.183206,-0.916030,0.652361,1.938031,-0.619194,-13.4718,-2.4096,-0.6413
3146,nan,nan,nan,nan,0,0,1.022324,-0.173580,9.294291,-3.984733,2.274809,-0.396947,0.700246,2.050152,-0.709087,-13.8664,-2.1976,-0.7330
3246,nan,nan,nan,nan,0,0,1.013944,-0.234632,9.388862,-5.801526,-4.320611,0.198473,0.618330,2.109384,-0.619592,-14.4513,-2.6123,-0.6101
3346,nan,nan,nan,nan,0,0,0.936133,-0.178368,9.069236,-5.526718,-0.900763,-0.549618,0.542512,2.169464,-0.965931,-15.0026,-2.7133,-0.6409
3446,nan,nan,nan,nan,0,0,1.036689,-0.160412,9.384074,-5.099236,-1.404580,-0.885496,0.608513,2.347660,-0.680889,-15.5102,-2.8719,-0.6901
3546,nan,nan,nan,nan,0,0,0.968455,0.000000,9.192538,-5.755725,-1.267176,-1.114504,0.535069,2.539552,-0.935064,-16.0820,-3.0238,-0.7637
3646,nan,nan,nan,nan,0,0,0.946907,-0.318429,9.197326,-5.526718,0.198473,-0.290076,0.509974,2.320663,-0.865549,-16.6330,-3.0127,-0.7971
3746,nan,nan,nan,nan,0,0,0.988805,-0.126893,9.168596,-5.465648,-0.213740,-0.564885,0.557522,2.578535,-0.969381,-17.1770,-3.0494,-0.8452
3846,nan,nan,nan,nan,0,0,1.013944,-0.094571,9.270349,-5.648855,-0.442748,-0.412214,0.574346,2.726237,-0.906417,-17.7405,-3.1039,-0.8715
3946,nan,nan,nan,nan,0,0,0.980426,-0.141258,9.206903,-4.870229,-1.664122,-0.778626,0.517832,2.737716,-0.975738,-18.2262,-3.2861,-0.8950
4046,nan,nan,nan,nan,0,0,0.985214,-0.064643,9.224860,-4.778625,-0.183206,-0.076336,0.523779,2.889150,-1.006006,-18.7040,-3.3059,-0.8965
4146,nan,nan,nan,nan,0,0,1.004368,-0.137667,9.378088,-5.877862,-2.809160,-0.030534,0.489869,2.962548,-0.864638,-19.2968,-3.5729,-0.8092
4246,nan,nan,nan,nan,0,0,0.907402,-0.184354,9.257182,-6.580152,-1.877863,0.259542,0.371191,2.982384,-1.002084,-19.9602,-3.7416,-0.7225
4360,55.591163,37.671600,178.699996,nan,11,1,0.985214,-0.134075,9.217677,-5.770992,-2.824427,-0.580153,0.404274,3.116336,-1.084311,-20.6213,-4.0668,-0.6746
4460,55.591163,37.671600,178.699996,nan,11,1,1.034295,-0.195127,9.342176,-5.022900,-2.900763,-0.671756,0.398458,3.180927,-0.968832,-21.1263,-4.3620,-0.6352
4560,55.591163,37.671600,178.699996,nan,11,1,1.063026,-0.031125,9.267955,-4.793893,-1.007634,-0.274809,0.424823,3.379380,-1.121876,-21.6066,-4.4659,-0.6245
4660,55.591163,37.671600,178.699996,nan,11,1,1.019930,-0.112527,9.200918,-5.007633,-1.923664,-0.305343,0.355290,3.355503,-1.185503,-22.1106,-4.6560,-0.5819
4760,55.591163,37.671600,178.699996,nan,11,1,0.791284,-0.247800,9.071631,-5.007633,0.137405,1.328244,0.136913,3.259516,-1.301426,-22.6210,-4.5932,-0.4637
4860,55.591163,37.671600,178.699996,nan,11,1,0.980426,-0.201113,9.330204,-4.412214,0.503817,-1.374046,0.319415,3.464903,-1.091903,-23.0505,-4.5996,-0.6104
4960,55.591163,37.671600,178.699996,nan,11,1,0.981623,-0.125696,9.382877,-5.862595,-2.229007,-0.213740,0.287268,3.645050,-1.109015,-23.6422,-4.8130,-0.5425
5060,55.591163,37.671600,178.699996,nan,11,1,1.039083,-0.050278,9.288306,-4.473282,-1.282443,-0.396947,0.336783,3.742491,-1.248894,-24.0908,-4.9464,-0.5274
5160,55.591163,37.671600,178.699996,nan,11,1,0.949301,-0.219069,9.228451,-6.687022,-2.091603,0.503817,0.215320,3.666317,-1.284606,-24.7708,-5.1168,-0.3955
5260,55.591163,37.671600,178.699996,nan,11,1,1.023521,-0.106542,9.390060,-4.167939,-2.198473,-1.435114,0.248068,3.897570,-1.205512,-25.1842,-5.3766,-0.4339
5360,55.591163,37.671600,178.699996,nan,11,1,0.976834,-0.033519,9.242816,-7.419847,0.442748,0.641221,0.229757,4.009983,-1.424990,-25.9299,-5.3092,-0.3945
5460,55.591163,37.671600,178.699996,nan,11,1,1.019930,-0.143652,9.153034,-5.572519,3.633588,-1.145038,0.336907,3.946538,-1.490987,-26.4628,-5.0325,-0.6575
5560,55.591163,37.671600,178.699996,nan,11,1,1.001973,-0.034716,9.427169,-3.496183,4.473282,0.442748,0.381009,4.214261,-1.323048,-26.7984,-4.6123,-0.8178
5660,55.591163,37.671600,178.699996,nan,11,1,0.957681,-0.104148,9.393651,-4.320611,0.076336,-0.793893,0.340233,4.199979,-1.356023,-27.2244,-4.6413,-0.8924
5760,55.591163,37.671600,178.699996,nan,11,1,1.028310,0.037110,9.520544,-3.267176,-2.198473,-1.954198,0.375831,4.429956,-1.325271,-27.5452,-4.9262,-0.9658
5860,55.591163,37.671600,178.699996,nan,11,1,0.980426,-0.185551,9.688138,-8.045802,-0.702290,1.328244,0.300151,4.435270,-1.140972,-28.3627,-4.9270,-0.8150
5960,55.591163,37.671600,178.699996,nan,11,1,0.837971,-0.159214,8.899249,-6.351145,-2.152672,0.595420,0.185677,4.174862,-1.903471,-29.0112,-5.0882,-0.6598
6060,55.591163,37.671600,178.699996,nan,11,1,1.132457,-0.102951,9.569624,-4.732824,0.030534,-2.381679,0.438028,4.611577,-1.356073,-29.4658,-5.2010,-0.8704
6160,55.591163,37.671600,178.699996,nan,11,1,1.090559,0.390255,9.630677,-0.061069,3.694656,-0.427481,0.483094,5.066889,-1.549240,-29.4520,-4.9004,-1.0903
6260,55.591026,37.671512,178.800003,nan,11,1,0.708684,0.064643,8.939949,-8.748092,1.312977,-0.045802,0.157168,4.566821,-2.089879,-30.3209,-4.7883,-1.1591
6373,55.591026,37.671512,178.800003,nan,11,1,0.521936,0.032322,9.308656,-8.610688,-7.297709,1.480916,-0.178479,4.871424,-1.859203,-31.3409,-5.4156,-0.5963
6473,55.591026,37.671512,178.800003,nan,11,1,1.054646,0.019154,9.179369,-1.847328,-5.022900,-2.305344,0.281643,4.814457,-1.925334,-31.5317,-5.9646,-0.5317
6573,55.591026,37.671512,178.800003,nan,11,1,0.932542,-0.079009,9.367315,-8.351145,-4.122138,-0.687023,0.079258,4.949809,-1.799429,-32.3832,-6.3518,-0.3738
6673,55.591026,37.671512,178.800003,nan,11,1,1.143231,-0.049081,9.150639,-3.007634,1.786260,-1.496183,0.341636,4.893453,-1.997618,-32.6593,-6.2811,-0.5972
6773,55.591026,37.671512,178.800003,nan,11,1,0.831985,0.028730,9.458294,-2.488550,3.053435,-0.274809,0.064237,5.159493,-1.836214,-32.8874,-6.0389,-0.7862
6873,55.591026,37.671512,178.800003,nan,11,1,0.878672,-0.118513,9.239225,-5.679389,-1.847328,-0.854962,0.094519,4.994188,-1.983700,-33.4584,-6.2404,-0.7576
6973,55.591026,37.671512,178.800003,nan,11,1,0.814029,-0.135272,9.100361,-1.297710,4.259542,-0.870229,0.109575,4.916130,-2.104886,-33.5546,-5.9330,-1.0668
7073,55.591026,37.671512,178.800003,nan,11,1,0.865504,0.074220,9.405622,2.488550,5.740458,-1.847328,0.244084,5.215349,-1.935126,-33.2567,-5.5568,-1.5406
7173,55.591026,37.671512,178.800003,nan,11,1,0.787692,0.166397,9.327811,-0.534351,2.290076,0.015267,0.216746,5.255917,-2.061680,-33.2981,-5.3644,-1.6655
7273,55.591026,37.671512,178.800003,nan,11,1,0.707487,0.065841,8.608353,-2.717557,6.213740,-1.511450,0.270634,4.802655,-2.632399,-33.5259,-4.9280,-2.1350
7373,55.591026,37.671512,178.800003,nan,11,1,0.025139,-0.092177,7.770381,-11.603053,-2.992366,-2.778626,-0.406154,4.364369,-3.389854,-34.6805,-5.3310,-2.2016
7473,55.591026,37.671512,178.800003,nan,11,1,0.954089,0.132878,10.149022,1.251908,-0.290076,5.969466,0.400064,5.863564,-1.476635,-34.6027,-5.0152,-1.6920
7573,55.591026,37.671512,178.800003,nan,11,1,1.004368,0.440533,7.994239,18.183206,14.519083,-3.160305,0.776055,4.656128,-3.262271,-32.6892,-3.9995,-2.7809
7673,55.591026,37.671512,178.800003,nan,11,1,0.622492,0.697910,9.519347,5.480916,2.519084,-8.641222,0.408979,5.632584,-2.086593,-32.0807,-4.2542,-3.6463
7773,55.591026,37.671512,178.800003,nan,11,1,0.854730,0.436942,9.289503,-6.763358,-3.038168,-3.679389,0.586670,5.365248,-2.185214,-32.7459,-4.7071,-3.7971
7873,55.591026,37.671512,178.800003,nan,11,1,1.051055,0.554258,10.280702,10.610688,-0.122137,-3.053435,0.740709,5.830757,-1.288529,-31.6642,-4.8825,-4.0481
7973,55.591026,37.671512,178.800003,nan,11,1,0.955286,0.142455,9.996990,1.022901,0.076336,-0.839695,0.611902,5.322828,-1.311607,-31.5554,-4.9201,-4.1239
8073,55.591026,37.671512,178.800003,nan,11,1,0.952892,0.344765,9.855731,-5.954198,-10.503817,1.114504,0.466042,5.526437,-1.596681,-32.2064,-5.7568,-3.4768
8173,55.591026,37.671512,178.800003,nan,11,1,1.309628,0.404620,9.742007,-1.664122,2.625954,-1.374046,0.880902,5.508564,-1.703239,-32.3469,-5.6079,-3.7344
8312,55.591026,37.671512,178.800003,nan,11,1,1.215057,0.567426,9.223663,-0.809160,3.312977,-1.709923,0.906943,5.371553,-2.243703,-32.4155,-5.3460,-4.1837
8412,55.591026,37.671512,178.800003,nan,11,1,1.407791,0.405817,9.549274,-3.328244,-1.068702,-0.366412,1.056199,5.445089,-1.896489,-32.7508,-5.4559,-4.1572
8512,55.591026,37.671512,178.800003,nan,11,1,0.873884,0.415394,8.927979,-6.381680,-2.625954,1.450381,0.521909,5.239919,-2.532319,-33.4142,-5.5982,-3.8920
8612,55.591026,37.671512,178.800003,nan,11,1,1.176750,0.210690,9.178173,-6.305344,1.969466,-2.717557,0.832659,5.261513,-2.237558,-34.0119,-5.5835,-4.2289
8712,55.591026,37.671512,178.800003,nan,11,1,0.894234,0.216675,8.881292,-5.007633,-0.992366,0.229008,0.558215,5.184670,-2.558786,-34.5199,-5.6530,-4.1540
8812,55.591026,37.671512,178.800003,nan,11,1,0.992397,0.478840,9.635465,1.526717,1.954198,-1.465649,0.686384,5.795829,-2.061099,-34.3443,-5.5750,-4.3867
8912,55.591026,37.671512,178.800003,nan,11,1,1.119289,0.088585,8.711303,-10.381679,-5.770992,-1.160305,0.731804,5.079428,-2.678444,-35.4049,-6.1170,-4.1558
9012,55.591026,37.671512,178.800003,nan,11,1,0.682347,0.165200,9.764752,-8.229008,-1.083969,-2.549618,0.260381,5.899182,-1.997993,-36.2123,-6.3530,-4.3016
9112,55.591026,37.671512,178.800003,nan,11,1,0.773327,0.331597,9.516952,0.061069,3.206107,-4.290076,0.437023,5.865408,-2.277615,-36.1465,-6.3478,-4.8405
9212,55.591026,37.671512,178.800003,nan,11,1,0.972046,0.305261,8.730457,-8.717557,-3.526717,-0.519084,0.625881,5.469458,-2.954480,-37.0368,-6.6632,-4.6734
9312,55.591026,37.671512,178.800003,nan,11,1,0.952892,0.482432,9.768343,-10.687023,-1.755725,3.770992,0.577625,6.388628,-2.362656,-38.1530,-6.5762,-4.2638
9412,55.591026,37.671512,178.800003,nan,11,1,1.041478,-0.148441,9.194932,-2.061069,6.015267,2.320611,0.710500,5.548669,-2.433662,-38.3373,-5.9598,-4.4542
9512,55.591026,37.671512,178.800003,nan,11,1,0.814029,0.209493,9.038112,-9.801527,2.656489,-2.351145,0.597114,5.854964,-2.896017,-39.2810,-5.8973,-4.8053
9612,55.591026,37.671512,178.800003,nan,11,1,0.469264,0.590171,8.657434,-16.778625,-7.938931,1.236641,0.227581,6.127214,-3.648311,-41.0207,-6.4335,-4.2038
9712,55.591026,37.671512,178.800003,nan,11,1,0.500388,0.124498,8.572440,-4.977099,1.969466,-2.045801,0.240938,5.770855,-3.451195,-41.4864,-6.4192,-4.4892
9812,55.591026,37.671512,178.800003,nan,11,1,1.570596,0.818817,9.392454,-14.961832,-15.145038,-9.404580,1.167320,6.939541,-3.338609,-43.0162,-8.1767,-4.1885
9912,55.591026,37.671512,178.800003,nan,11,1,1.358709,0.587777,5.463568,72.824424,93.679389,-39.740459,1.870209,3.222521,-5.545216,-34.3980,-4.0384,-13.5805
10012,55.591026,37.671512,178.800003,nan,11,1,0.609324,2.005144,10.044874,-39.786258,-72.351142,22.290075,0.650384,7.839384,-3.217839,-38.7950,-8.7491,-7.6392
10112,55.591026,37.671512,178.800003,nan,11,1,1.426944,0.205901,9.928755,1.969466,10.885497,-2.290076,1.276975,6.216827,-2.036249,-38.4656,-8.0441,-8.5098
10212,55.591026,37.671512,178.800003,nan,11,1,0.469264,1.126472,7.107188,-4.183206,7.755725,-1.618321,0.678794,5.290415,-4.953608,-38.7979,-7.5375,-9.1250
10353,55.591003,37.671504,178.800003,nan,11,1,1.631648,0.454898,9.817424,-9.801527,-3.893130,-0.503817,1.631648,6.513139,-2.446774,-40.2181,-8.0099,-8.8339
10454,55.591003,37.671504,178.800003,nan,11,1,1.040281,-0.356736,13.785814,-14.854961,-0.687023,6.763358,0.922351,8.882048,0.753492,-41.7981,-7.6218,-8.2619
10554,55.591003,37.671504,178.800003,nan,11,1,0.486023,1.048660,9.823410,-16.488550,-26.122137,13.297709,0.247154,7.568686,-3.443537,-43.8126,-8.6829,-5.5051
10654,55.591003,37.671504,178.800003,nan,11,1,0.924162,0.065841,9.363723,-23.221374,-16.396945,-3.893130,0.330780,6.806804,-3.318528,-46.2652,-10.1356,-4.6410
10754,55.591003,37.671504,178.800003,nan,11,1,0.162806,0.841562,5.673061,20.152671,24.854959,-4.198473,0.166196,4.550767,-6.316485,-43.8770,-8.7207,-6.7602
10854,55.591003,37.671504,178.800003,nan,11,1,0.730232,0.184354,10.413580,-3.908397,-15.954198,10.977099,0.195941,7.447987,-2.492351,-44.5588,-9.1099,-4.8410
10954,55.591003,37.671504,178.800003,nan,11,1,1.244985,1.279701,11.262325,40.473281,25.251909,0.381679,1.197443,8.167556,-1.939964,-40.2317,-7.2838,-6.6078
11054,55.591003,37.671504,178.800003,nan,11,1,2.646790,3.409343,11.443087,-12.290076,12.106870,3.572519,3.195891,9.803792,-3.230534,-41.3957,-6.1288,-7.1212
11154,55.591003,37.671504,178.800003,nan,11,1,-2.327164,-1.736993,13.632585,-140.488540,-105.190834,-8.534352,-4.389381,10.409865,-1.642811,-56.1227,-14.5841,-0.7693
11254,55.591003,37.671504,178.800003,nan,11,1,-1.825579,-1.940501,7.044939,-55.129768,-12.000000,-21.725191,-3.137659,5.327410,-5.505110,-61.5798,-17.0567,-0.9912
11354,55.591003,37.671504,178.800003,nan,11,1,1.085770,-1.775300,9.587581,-10.809160,-95.022903,2.900763,-2.117893,7.747863,-4.173050,-65.2671,-21.3241,7.8948
11454,55.591003,37.671504,178.800003,nan,11,1,1.412579,-1.097741,11.139024,-16.290075,-26.595417,15.969466,-2.452525,9.632781,-4.470648,-68.0999,-20.9864,11.2052
11554,55.591003,37.671504,178.800003,nan,11,1,2.252944,0.656011,11.413160,-1.022901,-30.137401,13.725191,-1.908777,10.787931,-5.838849,-69.4712,-20.8370,14.7484
11654,55.591003,37.671504,178.800003,nan,11,1,1.468843,-1.849521,7.717709,-10.000000,8.045802,3.160305,-1.737340,6.406832,-5.215853,-70.2266,-20.2589,14.0608
11754,55.591003,37.671504,178.800003,nan,11,1,2.108095,-0.202310,8.694544,19.938930,-21.587785,-7.160305,-1.505934,7.930071,-5.943202,-68.8931,-21.6630,15.9680
11854,55.591003,37.671504,178.800003,nan,11,1,2.501941,-0.107739,8.558074,-2.625954,-23.709920,21.709920,-1.408979,8.004837,-6.139321,-70.3448,-20.4915,19.1892
11954,55.591003,37.671504,178.800003,nan,11,1,2.747346,-1.526304,7.419631,-6.427480,-3.862595,38.946563,-0.925910,6.669961,-5.381410,-71.6131,-16.9537,20.9761
12054,55.591003,37.671504,178.800003,nan,11,1,2.501941,-1.769315,7.314286,15.786260,5.267175,65.969459,-0.848287,6.477602,-5.311092,-70.5164,-10.5274,22.6290
12154,55.591003,37.671504,178.800003,nan,11,1,3.277662,-1.877054,7.740454,8.564885,4.366412,80.396949,-0.025400,7.308645,-5.249887,-70.0818,-2.8024,24.9377
12254,55.590995,37.671516,178.199996,nan,11,1,2.946065,-1.200692,6.762423,-2.671756,16.473281,78.900756,0.287258,6.785140,-6.687245,-70.4047,5.1769,26.0783
12365,55.590995,37.671516,178.199996,nan,11,1,2.774880,-2.393005,8.857350,11.251908,-0.198473,80.076332,-0.131092,8.396008,-5.183994,-68.8838,13.5432,29.0923
12465,55.590995,37.671516,178.199996,nan,11,1,2.437297,-2.300828,8.146272,5.282443,4.320611,82.106872,0.040852,7.863723,-5.837246,-67.7401,21.3582,31.7203
12565,55.590995,37.671516,178.199996,nan,11,1,2.958036,-1.722628,8.037336,9.267176,7.664122,79.603042,0.357825,8.264200,-6.997530,-65.9116,29.0156,34.1965
12665,55.590995,37.671516,178.199996,nan,11,1,2.027889,-0.122104,9.306262,-1.664122,-6.885496,73.312980,-1.961939,9.050519,-7.576705,-64.0696,35.4274,38.3370
12765,55.590995,37.671516,178.199996,nan,11,1,1.310825,0.520739,10.675745,1.541985,-7.053435,57.954196,-3.531960,9.817441,-7.141305,-61.6614,40.3310,42.2255
12865,55.590995,37.671516,178.199996,nan,11,1,0.839168,0.341174,8.372524,10.030535,-1.114504,71.465644,-2.816171,7.605440,-7.538120,-57.6950,46.5682,46.8042
12965,55.590995,37.671516,178.199996,nan,11,1,0.424971,-0.377087,7.536947,-7.877862,4.717557,66.061065,-2.219824,6.786745,-7.328578,-55.1747,52.4039,51.3595
13065,55.590995,37.671516,178.199996,nan,11,1,0.233435,-0.824802,9.380483,2.305344,-12.519083,66.732826,-2.597761,8.350840,-6.307598,-48.6602,57.1670,59.2905
13165,55.590995,37.671516,178.199996,nan,11,1,0.207098,-0.277727,8.605958,-7.816794,-7.236642,48.366413,-2.957307,7.513107,-6.808303,-43.6489,60.3204,66.1849
13265,55.590995,37.671516,178.199996,nan,11,1,0.159214,-0.599748,8.470686,-10.381679,-8.229008,11.480916,-2.791632,7.378587,-6.660095,-42.2328,60.5174,69.0097
13365,55.590995,37.671516,178.199996,nan,11,1,0.043096,-0.379481,9.526529,-6.717557,-25.068702,8.244276,-3.595014,7.931217,-5.924345,-38.8446,59.2154,73.6737
13465,55.590995,37.671516,178.199996,nan,11,1,0.891840,-1.507150,8.973468,-29.007631,-4.809160,4.580152,-2.685837,8.119702,-6.574511,-40.6403,59.1281,74.9600
13565,55.590995,37.671516,178.199996,nan,11,1,2.093729,-1.816002,10.991781,-20.610685,1.068702,3.679389,-3.564040,10.349309,-6.858728,-42.3507,59.4489,75.3685
13665,55.590995,37.671516,178.199996,nan,11,1,2.330755,-3.033453,9.502587,-6.442748,20.839694,-29.374042,-1.683627,9.818100,-7.418401,-49.0513,59.0102,68.3358
13765,55.590995,37.671516,178.199996,nan,11,1,1.482011,-1.448492,8.682573,-12.045801,20.198471,-24.534351,-2.816195,8.247011,-7.873412,-55.4731,58.4809,62.2500
13865,55.590995,37.671516,178.199996,nan,11,1,0.859518,-2.067393,7.801506,-7.450381,16.183206,-38.076332,-2.019716,7.505265,-7.468249,-61.9113,56.2612,55.5715
13965,55.590995,37.671516,178.199996,nan,11,1,1.496376,-1.754950,8.538921,-4.198473,25.923662,-54.244270,-2.256570,8.398890,-8.194599,-69.5794,52.6962,46.8553
14065,55.590995,37.671516,178.199996,nan,11,1,1.121683,-2.042254,8.455123,-7.129770,13.572520,-53.374042,-2.132644,8.270519,-7.814561,-74.4060,48.1678,41.6836
14166,55.590995,37.671516,178.199996,nan,11,1,0.960075,-1.904587,10.672155,15.404581,36.961833,-64.259544,-2.783601,10.282098,-7.576379,-78.8164,42.9200,33.6764
14266,55.590984,37.671501,176.600006,nan,11,1,1.485602,0.428562,11.720815,-5.603054,13.603053,-63.694652,-4.181798,11.057516,-9.696719,-81.7664,36.9353,30.1671
14375,55.590984,37.671501,176.600006,nan,11,1,0.937330,-0.760159,9.612720,-1.664122,1.679389,-60.091602,-2.963695,9.143449,-8.592290,-82.7892,30.4791,28.7670
14475,55.590984,37.671501,176.600006,nan,11,1,0.907402,-0.644040,7.181408,-33.114501,-1.374046,-58.870223,-2.226333,6.890731,-9.196690,-86.4553,24.6214,28.0677
14575,55.590984,37.671501,176.600006,nan,11,1,0.017957,-1.662773,7.502231,-25.801525,-5.358778,-35.694656,-2.968640,6.885540,-8.125841,-88.8915,21.0256,28.4133
14675,55.590984,37.671501,176.600006,nan,11,1,0.671574,-2.403779,9.659407,-13.221375,-6.534351,-5.908396,-3.412677,9.153799,-7.783062,-89.9669,20.4222,29.1010
14775,55.590984,37.671501,176.600006,nan,11,1,1.323994,-1.780089,9.762358,-26.274808,-13.404580,-9.190840,-3.505137,9.334468,-8.908298,-92.0955,19.5024,30.5307
14875,55.590984,37.671501,176.600006,nan,11,1,1.561019,-0.213084,9.165004,-15.877862,2.000000,4.015267,-3.468324,8.581771,-10.702987,-93.7592,19.8963,30.3031
14976,55.590984,37.671501,176.600006,nan,11,1,1.084573,-2.041057,9.175779,-9.190840,7.374045,-8.717557,-3.354836,8.809275,-8.982710,-94.9356,18.9689,29.5742
15076,55.590984,37.671501,176.600006,nan,11,1,0.896629,-2.250550,7.020997,-11.541984,19.465646,-27.923662,-2.262733,6.985423,-8.689859,-96.6738,16.0194,27.7775
15176,55.590984,37.671501,176.600006,nan,11,1,0.165200,-2.782062,7.869741,2.213740,6.076336,-39.877861,-3.284300,7.461663,-8.007498,-96.4926,11.9880,27.6318
15276,55.590984,37.671501,176.600006,nan,11,1,0.749385,-1.479617,8.161834,-6.229008,-2.335878,-26.473279,-3.190367,7.685630,-9.461656,-97.0027,9.3841,28.1751
15376,55.590984,37.671501,176.600006,nan,11,1,-0.051475,-0.681150,8.675391,31.435111,13.358779,-40.061065,-4.034072,7.710320,-9.727567,-93.9976,5.2450,27.3262
15476,55.590984,37.671501,176.600006,nan,11,1,0.199916,0.727837,10.200497,12.045801,8.244276,-47.389308,-4.412800,9.144687,-11.040243,-92.8382,0.4601,26.8321
15576,55.590984,37.671501,176.600006,nan,11,1,0.888249,-1.570596,9.762358,4.167939,8.229008,-49.221374,-3.631026,9.158694,-8.584618,-92.4260,-4.4967,26.2539
15676,55.590984,37.671501,176.600006,nan,11,1,-0.381875,-2.425326,6.930017,-3.328244,10.610688,-48.458015,-3.666920,6.048078,-7.799755,-92.6916,-9.3831,25.3963
15776,55.590984,37.671501,176.600006,nan,11,1,0.211887,-2.302025,8.875307,-26.305341,-10.290077,-35.801525,-4.158462,8.045119,-8.358014,-95.5198,-12.9110,26.6085
15876,55.590984,37.671501,176.600006,nan,11,1,1.392228,-1.758541,9.734825,-15.893130,-8.213741,-5.450382,-3.464351,9.334504,-8.992463,-97.3085,-13.3745,27.5010
15976,55.590984,37.671501,176.600006,nan,11,1,1.544260,-3.136404,10.789470,-20.061069,-17.175571,-1.236641,-4.401347,10.331260,-8.216797,-99.7234,-13.2786,29.2683
16076,55.590984,37.671501,176.600006,nan,11,1,2.066196,-2.000355,7.589619,2.778626,-5.206107,7.557251,-2.249100,7.714028,-8.662872,-99.5365,-12.4458,29.6644
16176,55.590984,37.671501,176.600006,nan,11,1,1.289278,-1.819593,7.965509,-0.564885,-1.984733,14.015268,-3.010373,7.672148,-9.100757,-99.5850,-11.0308,29.6270
16304,55.590984,37.671501,176.600006,nan,11,1,0.554258,-2.548628,7.577648,2.335878,19.206106,-6.732824,-3.389100,7.117730,-8.366036,-98.8414,-12.2899,27.3035
16404,55.590984,37.671501,176.600006,nan,11,1,0.730232,-2.018312,8.249222,-3.267176,5.190839,-24.519081,-3.391562,7.774154,-8.960290,-99.1385,-14.7925,27.1643
16504,55.590984,37.671501,176.600006,nan,11,1,1.347936,-1.395820,10.867282,3.358778,11.297710,-9.145039,-3.608230,10.431840,-9.663665,-98.5464,-15.8748,26.1609
16604,55.590984,37.671501,176.600006,nan,11,1,0.769736,-0.769736,10.344149,8.259542,-11.541984,-16.122137,-3.959023,9.608393,-10.244051,-98.1132,-17.2976,27.5966
16704,55.590984,37.671501,176.600006,nan,11,1,0.134075,-0.800860,10.060436,-1.877863,0.259542,-29.725191,-4.409354,9.059670,-10.399699,-98.4236,-20.2440,28.0091
16804,55.590984,37.671501,176.600006,nan,11,1,0.141258,-0.117316,8.216900,-4.900763,16.045801,-25.770992,-3.163679,7.525756,-10.758115,-98.4675,-23.0284,26.7197
16904,55.590984,37.671501,176.600006,nan,11,1,0.196325,-0.776918,6.967127,-21.221374,-1.969466,-21.984733,-2.840350,6.399109,-10.215094,-100.8101,-25.1739,27.2831
17004,55.590984,37.671501,176.600006,nan,11,1,0.828394,-1.672350,9.818622,-16.946563,-4.641222,-3.725191,-3.783340,9.249771,-9.934747,-102.7519,-25.4527,27.8640
17104,55.590984,37.671501,176.600006,nan,11,1,1.578976,-1.151611,11.291056,-8.259542,-16.564886,28.824424,-3.620225,10.834466,-10.709779,-104.0440,-22.2758,28.9487
17204,55.590984,37.671501,176.600006,nan,11,1,0.990002,-2.580950,10.939108,-13.389313,-23.083967,13.099237,-4.820763,10.199566,-9.992655,-106.1700,-20.4448,31.0252
17304,55.590984,37.671501,176.600006,nan,11,1,2.189497,-1.663970,9.946711,-22.320608,3.862595,13.923665,-2.801290,9.907196,-10.513748,-108.1192,-19.2151,30.2154
17404,55.590984,37.671501,176.600006,nan,11,1,2.110489,-1.657985,9.069236,3.923664,13.557251,4.564886,-2.329468,9.160092,-10.153666,-107.2283,-19.2029,28.7006
17504,55.590984,37.671501,176.600006,nan,11,1,0.623690,-2.498349,6.781576,9.206108,27.129768,8.503817,-2.773830,6.656135,-9.017829,-105.3175,-19.1942,25.6899
17604,55.590984,37.671501,176.600006,nan,11,1,-0.035913,-1.751358,7.192182,22.473279,-0.183206,-7.282442,-3.286470,6.632666,-9.752974,-103.1432,-19.8917,25.9124
17704,55.590984,37.671501,176.600006,nan,11,1,0.764947,-4.824316,12.394783,6.229008,17.893127,-17.496183,-5.522707,11.910418,-7.541376,-102.0338,-22.0024,24.4824
17804,55.590984,37.671501,176.600006,nan,11,1,0.185551,-0.307655,10.924743,24.274806,-16.717557,-16.290075,-4.096307,10.028133,-11.268129,-100.4043,-23.2470,26.6122
17904,55.590984,37.671501,176.600006,nan,11,1,0.630872,0.457293,10.612299,-19.068702,-1.938931,-21.251909,-3.141789,9.921142,-12.026586,-102.5579,-25.3023,27.2375
18004,55.590984,37.671501,176.600006,nan,11,1,0.511162,-0.709881,7.484274,-15.374046,10.748091,-11.786259,-2.457030,7.084806,-10.546990,-103.7205,-26.6864,26.3605
18104,55.590984,37.671501,176.600006,nan,11,1,0.323217,-1.401805,7.232883,-27.725191,1.267176,-13.496183,-2.722262,6.836505,-10.292054,-106.5921,-28.0276,26.5810
18204,55.590984,37.671501,176.600006,nan,11,1,0.921768,-1.106121,8.840590,-10.167939,-17.190839,-3.404580,-2.735968,8.454220,-10.933523,-108.5376,-27.8629,28.5575
18347,55.590957,37.671432,172.800003,nan,11,1,1.471237,-1.423353,11.793838,18.656486,-20.961832,24.809160,-4.074140,11.182081,-11.090210,-106.7759,-23.5463,30.4964
18447,55.590957,37.671432,172.800003,nan,11,1,1.537077,-1.368286,10.811018,3.618321,1.068702,30.366413,-3.527987,10.374999,-10.819384,-105.9875,-20.6697,29.4287
18547,55.590957,37.671432,172.800003,nan,11,1,1.306037,-1.784877,9.035717,-13.786259,-10.259542,12.931298,-3.230283,8.706479,-10.352720,-107.6039,-19.1441,30.1022
18647,55.590957,37.671432,172.800003,nan,11,1,1.349133,-2.217031,7.356185,-13.755725,5.083969,13.435114,-2.552266,7.369129,-9.631375,-108.6702,-18.0172,29.1591
18747,55.590957,37.671432,172.800003,nan,11,1,0.398635,-0.521936,7.467515,8.396946,21.984733,18.458015,-2.456707,6.923912,-11.296326,-106.9609,-16.9723,26.3476
18847,55.590957,37.671432,172.800003,nan,11,1,0.774524,-1.370680,10.927137,7.206106,15.618320,-4.335878,-3.456714,10.398418,-11.150159,-105.8229,-17.8427,24.9179
18947,55.590957,37.671432,172.800003,nan,11,1,-1.509544,0.149638,9.378088,22.977098,1.404580,-22.748088,-4.445245,7.936796,-12.544662,-103.6814,-20.0696,25.4275
19047,55.590957,37.671432,172.800003,nan,11,1,0.494403,-0.059855,11.807006,0.625954,9.053436,-30.992364,-3.525677,11.043444,-12.101285,-103.5652,-23.2950,25.2714
19147,55.590957,37.671432,172.800003,nan,11,1,0.582988,1.065420,7.295133,-10.030535,-0.396947,-28.396944,-1.359535,6.878722,-12.157991,-104.8716,-26.0462,26.0386
19247,55.590957,37.671432,172.800003,nan,11,1,0.142455,-0.743400,7.037756,-23.664119,3.053435,-21.038167,-2.375097,6.566592,-10.964983,-107.3577,-28.1579,26.3111
19347,55.590957,37.671432,172.800003,nan,11,1,-0.575805,-1.776498,8.596382,-19.633586,-5.816794,-7.038168,-3.894804,7.770371,-11.162054,-109.7306,-28.6561,27.1790
19447,55.590957,37.671432,172.800003,nan,11,1,-0.050278,-1.854309,10.813412,-25.770992,-8.793892,19.083967,-4.007819,9.978619,-11.982750,-112.4080,-26.5629,27.3881
19547,55.590957,37.671432,172.800003,nan,11,1,0.963666,-1.720234,11.528081,-15.541984,-29.328243,15.755725,-3.609393,10.807274,-12.444761,-115.0175,-23.9883,29.7480
19647,55.590957,37.671432,172.800003,nan,11,1,2.149993,-1.413776,8.603565,-21.709920,4.412214,13.969465,-1.361411,8.736934,-11.373530,-116.7477,-22.9090,28.6638
19747,55.590957,37.671432,172.800003,nan,11,1,0.647632,-1.760935,7.095217,-0.076336,0.229008,25.221376,-2.260725,6.872699,-11.038542,-116.2670,-20.6670,27.4092
19847,55.590957,37.671432,172.800003,nan,11,1,0.703895,-2.463634,6.628347,-17.236640,8.656489,21.770992,-2.174965,6.740603,-10.384358,-117.3344,-19.0978,25.5498
19947,55.590957,37.671432,172.800003,nan,11,1,-0.685939,-1.985990,7.726089,-4.122138,6.961832,9.389312,-3.288794,7.044320,-11.721986,-117.3832,-18.5834,24.4391
20047,55.590957,37.671432,172.800003,nan,11,1,-0.199916,-3.575740,11.056424,-12.793892,-24.839693,-11.022901,-4.729475,10.366208,-12.096668,-119.5746,-18.4197,27.3009
20147,55.590957,37.671432,172.800003,nan,11,1,0.035913,-1.088165,8.961498,-4.122138,0.274809,-3.328244,-2.787795,7.908116,-13.150859,-120.0336,-18.7228,27.4489
20247,55.590957,37.671432,172.800003,nan,11,1,1.814805,-0.416591,9.837776,-7.648855,-9.236641,-14.259541,-1.302582,9.138424,-13.684973,-121.3114,-19.4949,29.0468
20379,55.590942,37.671405,171.500000,nan,11,1,0.191536,-2.154782,6.494272,-27.526718,-1.465649,-16.503816,-2.531570,6.099665,-11.606810,-125.4042,-21.2556,30.4231
20480,55.590942,37.671405,171.500000,nan,11,1,1.043872,-1.940501,8.160637,-41.419845,-27.297708,12.412213,-2.110795,7.511961,-13.057219,-130.1792,-18.6365,32.0551
20580,55.590942,37.671405,171.500000,nan,11,1,0.622492,-4.317943,9.478645,-23.496183,-6.854961,18.900762,-3.861939,9.258786,-12.676693,-132.2942,-16.7502,31.3209
20680,55.590942,37.671405,171.500000,nan,11,1,1.327585,-4.827908,9.369709,-21.755723,-37.740455,11.633588,-3.827240,9.497413,-12.637550,-135.0744,-13.3499,33.4187
20780,55.590942,37.671405,171.500000,nan,11,1,2.315193,-4.582502,8.486248,-2.274809,-11.404581,20.824426,-2.631849,9.285406,-12.093669,-135.1431,-11.0719,32.7311
20880,55.590942,37.671405,171.500000,nan,11,1,1.598130,-4.209007,6.199785,-14.427481,-42.625953,15.374046,-2.688575,7.026268,-11.259305,-136.9609,-6.9659,34.6842
20980,55.590942,37.671405,171.500000,nan,11,1,0.824802,-4.459201,5.981913,-8.458015,-0.488550,10.442749,-3.281650,6.619340,-11.134491,-137.7175,-6.2174,33.9489
21080,55.590942,37.671405,171.500000,nan,11,1,1.315614,-4.112041,6.700173,5.190839,-0.473282,14.259541,-2.855193,7.173866,-11.785430,-137.0870,-5.2231,32.9197
21180,55.590942,37.671405,171.500000,nan,11,1,0.184354,-5.172673,8.356962,-5.541985,37.282444,15.435114,-4.188420,8.506494,-12.400112,-137.3058,-6.9026,29.2354
21280,55.590942,37.671405,171.500000,nan,11,1,-0.562637,-4.484340,9.063251,18.900762,0.366412,8.992367,-4.741268,8.304500,-13.141923,-135.3327,-6.3198,28.5446
21380,55.590942,37.671405,171.500000,nan,11,1,-0.058658,-3.608062,9.787497,-9.099237,-36.503818,-34.839694,-4.796659,8.014904,-14.451005,-136.8013,-6.1728,33.6195
21480,55.590942,37.671405,171.500000,nan,11,1,1.085770,-3.154361,8.346188,-12.625955,3.251908,-3.206107,-3.096534,7.457390,-13.754631,-138.0651,-6.6294,33.6306
21580,55.590942,37.671405,171.500000,nan,11,1,0.590171,-3.694253,7.229292,-18.748090,2.534351,1.007634,-3.318158,6.773571,-12.867210,-139.9115,-6.7505,33.3847
21680,55.590942,37.671405,171.500000,nan,11,1,-0.138864,-4.088099,7.984663,-11.038168,3.984733,16.335878,-4.132460,7.100798,-13.410553,-140.8370,-6.0034,31.8678
21780,55.590942,37.671405,171.500000,nan,11,1,-0.099359,-4.122815,8.119935,-18.137405,-14.244276,6.290076,-4.200784,7.046127,-13.762194,-142.6940,-4.5017,32.2819
21880,55.590942,37.671405,171.500000,nan,11,1,0.840365,-4.352659,9.208100,-12.259541,-0.122137,16.274808,-3.633993,8.256696,-14.608945,-143.8187,-3.5057,30.9908
21980,55.590942,37.671405,171.500000,nan,11,1,1.454478,-4.412514,8.969877,22.473279,16.122137,23.664119,-2.759769,8.780720,-13.969236,-141.3960,-3.4100,28.1236
22080,55.590942,37.671405,171.500000,nan,11,1,0.418985,-4.708198,8.589200,11.740458,0.442748,40.488548,-3.414432,8.476289,-13.357878,-140.0318,-0.9184,24.9263
22180,55.590942,37.671405,171.500000,nan,11,1,-0.586579,-4.045004,6.909666,-6.473282,2.458015,32.702289,-3.432318,6.709540,-12.572672,-140.6364,0.9939,22.2617
22280,55.590942,37.671405,171.500000,nan,11,1,-2.118869,-4.162320,7.429208,14.580152,6.839694,37.312973,-4.735688,6.836353,-12.607574,-139.2360,2.8317,18.9426
22382,55.590923,37.671394,171.500000,1.409578,11,1,-1.555034,-4.574122,8.737640,4.977099,0.839695,26.152671,-4.419315,8.268647,-13.239756,-138.8310,4.5086,16.8637
22482,55.590923,37.671394,171.500000,1.409578,11,1,-1.130063,-3.683479,9.998187,8.839694,-19.007633,-16.122137,-4.586210,8.404325,-14.617346,-137.7527,4.8781,19.3362
22582,55.590923,37.671394,171.500000,1.409578,11,1,0.761356,-2.527080,9.625888,13.755725,-18.793893,-18.717557,-2.897237,7.987121,-15.044534,-136.1510,5.0109,21.9950
22682,55.590923,37.671394,171.500000,1.409578,11,1,0.470461,-1.523909,8.763976,-12.167939,11.801527,-18.183206,-2.519863,6.598980,-15.233865,-137.3245,2.9002,22.4907
22782,55.590923,37.671394,171.500000,1.409578,11,1,-0.056264,-1.482011,7.175423,-55.999996,27.587785,-21.358776,-2.087027,5.096167,-14.639828,-142.9397,-0.5759,22.1906
22882,55.590923,37.671394,171.500000,1.409578,11,1,-1.125275,-4.237737,7.088034,-62.549613,3.282443,-35.557250,-3.886879,6.209811,-13.780981,-149.2212,-2.9807,24.8303
22982,55.590923,37.671394,171.500000,1.409578,11,1,-0.824802,-4.691438,8.643069,33.312976,-33.862594,-6.351145,-4.680981,7.401919,-14.355556,-146.0085,-0.3964,27.1119
23083,55.590923,37.671394,171.500000,1.409578,11,1,-0.496797,-5.468357,9.904813,-0.503817,-2.992366,19.709922,-4.881342,8.824566,-14.959766,-146.0492,0.9671,25.6303
23183,55.590923,37.671394,171.500000,1.409578,11,1,0.987608,-4.224569,8.568848,3.725191,-14.137405,35.007633,-2.723205,7.886035,-14.565023,-145.7123,4.0949,23.5156
23283,55.590923,37.671394,171.500000,1.409578,11,1,1.144428,-4.380192,7.566874,-3.709923,4.519084,25.725189,-2.089420,7.603699,-13.752720,-146.2537,5.1708,21.1295
23383,55.590923,37.671394,171.500000,1.409578,11,1,-0.020351,-2.946065,6.859388,18.290077,12.412213,2.595420,-2.496120,5.880958,-13.668596,-144.5066,4.2829,20.2205
23483,55.590923,37.671394,171.500000,1.409578,11,1,-1.310825,-3.578135,7.593211,9.312977,8.549619,6.854961,-3.920710,6.452746,-13.701295,-143.6543,3.9848,19.1630
23583,55.590923,37.671394,171.500000,1.409578,11,1,-0.602142,-3.573346,9.101558,1.465649,4.870229,-8.885497,-3.606965,7.513809,-14.954680,-143.4780,3.0659,19.5911
23683,55.590923,37.671394,171.500000,1.409578,11,1,-1.273715,-3.558981,10.840946,7.954198,6.106870,3.877862,-4.549769,8.375862,-16.206599,-142.7187,2.8059,18.9150
23783,55.590923,37.671394,171.500000,1.409578,11,1,-0.130484,-2.482787,9.981428,-16.366411,-19.007633,-21.862592,-3.359962,7.111539,-16.435890,-144.2137,2.9940,21.8094
23883,55.590923,37.671394,171.500000,1.409578,11,1,-0.248997,-2.626439,8.329428,-18.167936,20.061069,-11.709924,-2.804899,6.236656,-15.245052,-146.0422,0.6819,21.5859
23983,55.590923,37.671394,171.500000,1.409578,11,1,-0.483629,-2.451663,6.894104,-10.824428,0.320611,-17.190839,-2.690037,5.161866,-14.266701,-147.1078,-0.3049,22.9940
24083,55.590923,37.671394,171.500000,1.409578,11,1,-0.979228,-2.603694,7.608773,-13.251909,17.954198,-4.320611,-3.097300,5.431671,-14.957884,-148.4298,-2.0472,22.3818
24183,55.590923,37.671394,171.500000,1.409578,11,1,-1.772906,-3.101688,8.644266,9.358779,15.251909,8.809161,-3.974832,6.262357,-15.504947,-147.4385,-2.8854,20.8317
24310,55.590923,37.671394,171.500000,1.409578,11,1,-2.433706,-4.475960,10.404004,-12.534352,10.519084,34.717552,-4.754366,8.209347,-16.455188,-148.8069,-1.6384,16.3910
24410,55.590923,37.671394,171.500000,1.409578,11,1,-0.749385,-3.792415,7.941567,-30.885496,-28.396944,14.091603,-2.881375,6.533957,-15.004492,-151.9030,1.5206,16.6564
24510,55.590923,37.671394,171.500000,1.409578,11,1,-0.202310,-3.787627,8.076840,-10.610688,-12.595420,2.229007,-2.509257,6.600386,-15.262008,-152.9535,2.7367,17.0531
24610,55.590923,37.671394,171.500000,1.409578,11,1,-0.799663,-3.645172,6.703765,0.366412,-4.549618,16.091602,-2.764279,5.757552,-14.058304,-152.9755,3.8736,15.8254
24710,55.590923,37.671394,171.500000,1.409578,11,1,-1.114501,-3.482366,8.085220,8.229008,4.809160,18.335878,-3.131490,6.273326,-15.245301,-152.2780,4.2784,13.9693
24810,55.590923,37.671394,171.500000,1.409578,11,1,-1.369483,-3.208230,9.789891,8.320611,9.099237,2.412214,-3.487610,6.872609,-16.779025,-151.4936,3.5851,13.3307
24910,55.590923,37.671394,171.500000,1.409578,11,1,-1.180341,-3.248932,11.830948,25.328245,-8.167940,-11.893130,-3.939132,8.162863,-18.159554,-148.8709,3.7352,14.7685
25010,55.590923,37.671394,171.500000,1.409578,11,1,0.338780,-2.782062,9.060856,-26.763359,-14.977099,-24.992366,-2.149128,6.436227,-16.433110,-151.3570,3.7253,17.6883
25110,55.590923,37.671394,171.500000,1.409578,11,1,-0.393846,-2.987964,7.255628,-8.396946,-20.351142,-20.900762,-2.853157,5.385103,-14.765213,-152.0137,4.5095,20.5041
25210,55.590923,37.671394,171.500000,1.409578,11,1,-0.383072,-2.788048,7.420828,-7.145038,2.793893,-3.068702,-2.787839,5.232574,-15.082706,-152.7172,4.1187,20.6444
25310,55.590923,37.671394,171.500000,1.409578,11,1,-1.088165,-3.041833,8.541315,-15.175572,9.740459,7.465649,-3.554685,5.575730,-16.104774,-154.3147,3.5953,19.5315
25410,55.590923,37.671394,171.500000,1.409578,11,1,-0.312443,-3.823540,10.072407,-11.877863,6.045802,14.946564,-3.114150,7.025151,-17.364414,-155.6036,3.6982,17.9193
25510,55.590923,37.671394,171.500000,1.409578,11,1,0.102951,-3.948039,10.380062,-25.984733,-21.938928,6.458015,-3.063267,6.911675,-17.942278,-158.1815,5.9630,18.2381
25610,55.590923,37.671394,171.500000,1.409578,11,1,0.621295,-5.031415,8.231266,-12.519083,7.145038,22.061067,-2.095431,7.281753,-15.809993,-159.6750,6.1196,15.9118
25710,55.590923,37.671394,171.500000,1.409578,11,1,-0.621295,-3.264494,7.134721,2.244275,-4.106870,17.877862,-2.640390,5.047908,-15.237501,-159.6151,7.1257,14.3692
25810,55.590923,37.671394,171.500000,1.409578,11,1,-0.945710,-3.410540,7.517793,9.786259,-4.595420,17.786256,-3.025084,5.357222,-15.391666,-158.8249,8.1760,12.8503
25910,55.590923,37.671394,171.500000,1.409578,11,1,-0.902614,-3.554192,8.629900,-0.778626,7.984733,9.343512,-3.070811,5.903193,-16.413055,-159.0693,7.7689,11.6787
26010,55.590923,37.671394,171.500000,1.409578,11,1,-1.193510,-3.529053,10.165781,2.351145,-1.053435,1.343511,-3.663483,6.353320,-17.771322,-158.8462,7.9153,11.5901
26110,55.590923,37.671394,171.500000,1.409578,11,1,-0.361524,-2.470816,10.471041,-4.305344,-22.839694,-22.778623,-3.251479,5.436829,-18.509931,-158.8668,9.2234,14.5670
26210,55.590923,37.671394,171.500000,1.409578,11,1,-0.168791,-2.580950,9.097967,-0.748092,5.343511,-21.221374,-2.773016,5.142660,-17.244810,-158.6515,7.9599,16.3772
26359,55.590896,37.671455,170.899993,1.409578,11,1,-0.575805,-2.801216,7.584831,0.916030,8.030535,-16.961832,-2.833216,4.763777,-15.721660,-158.2467,5.9254,18.3141
26459,55.590896,37.671455,170.899993,1.409578,11,1,-1.114501,-2.592921,8.662222,-13.603053,19.526718,-1.496183,-3.202178,4.688823,-16.931286,-159.6677,4.0563,17.7263
26559,55.590896,37.671455,170.899993,1.409578,11,1,-1.188721,-2.953248,9.506178,-14.717556,4.580152,4.213740,-3.369735,5.094436,-17.756100,-161.1788,3.7732,17.1706
26659,55.590896,37.671455,170.899993,1.409578,11,1,-1.735796,-3.728969,9.641450,4.610687,17.740455,16.625953,-3.756498,5.912635,-17.604420,-160.8593,2.6304,15.0199
26759,55.590896,37.671455,170.899993,1.409578,11,1,-0.059855,-3.502717,8.480263,6.091603,2.580152,-5.862595,-1.954805,5.855461,-16.594859,-160.2285,2.1944,15.4897
26859,55.590896,37.671455,170.899993,1.409578,11,1,-0.124498,-3.745728,8.779538,-10.152671,-11.251908,-4.244274,-2.275023,5.975431,-16.895004,-161.2139,3.1097,16.2703
26959,55.590896,37.671455,170.899993,1.409578,11,1,-0.474052,-2.588132,7.564480,-7.053435,-19.755725,3.969466,-2.366250,4.314659,-16.125597,-161.9051,5.1079,16.5311
27059,55.590896,37.671455,170.899993,1.409578,11,1,-0.995988,-3.479972,7.722497,-0.732824,-4.473282,-3.877862,-3.184179,4.989278,-15.947274,-161.9330,5.4127,17.0406
27159,55.590896,37.671455,170.899993,1.409578,11,1,-0.778116,-3.519476,9.556456,15.374046,14.320611,-7.465649,-3.179782,5.843929,-17.556199,-160.3704,3.8197,17.3075
27259,55.590896,37.671455,170.899993,1.409578,11,1,-1.100136,-3.780444,11.664551,17.877862,-3.587786,-17.648855,-4.144623,6.817771,-19.182358,-158.4636,3.5647,19.0943
27359,55.590896,37.671455,170.899993,1.409578,11,1,-0.108936,-2.491167,8.991425,5.389312,-4.870229,-12.320611,-2.520774,5.141999,-17.173403,-157.8422,3.5655,20.4217
27459,55.590896,37.671455,170.899993,1.409578,11,1,-0.403423,-2.294842,8.781932,1.587786,9.160305,-8.916030,-2.606457,4.850759,-17.033537,-157.6535,2.3808,20.9029
27559,55.590896,37.671455,170.899993,1.409578,11,1,-0.982820,-2.354697,7.546524,0.183206,13.709923,-7.694656,-2.815510,4.326518,-15.874162,-157.6272,0.8202,21.0934
27659,55.590896,37.671455,170.899993,1.409578,11,1,-1.534683,-2.482787,8.037336,-26.961832,-0.442748,-7.816794,-3.362377,4.088059,-16.522336,-160.3128,0.5636,21.8332
27759,55.590896,37.671455,170.899993,1.409578,11,1,-1.076194,-2.451663,9.453506,-5.435114,-11.251908,12.595420,-3.217848,4.564492,-17.890491,-160.8643,2.0474,21.0263
27859,55.590896,37.671455,170.899993,1.409578,11,1,-2.015918,-3.873818,9.870097,-17.618320,26.381677,-2.137405,-4.131019,5.550334,-18.090229,-162.6498,-0.5151,20.3630
27959,55.590896,37.671455,170.899993,1.409578,11,1,-0.296881,-3.432088,8.019379,-14.274808,-25.496181,9.496184,-2.423320,4.969319,-16.560256,-164.0760,2.2017,20.2169
28059,55.590896,37.671455,170.899993,1.409578,11,1,-0.646434,-4.088099,8.407239,16.488550,-3.267176,9.847328,-3.052307,5.744734,-16.551541,-162.4601,2.7860,19.3590
28160,55.590896,37.671455,170.899993,1.409578,11,1,-0.952892,-3.157952,6.823475,-17.099237,-25.374046,11.450381,-3.017241,4.138641,-15.393097,-164.2032,5.5782,19.0282
28260,55.590892,37.671497,171.399993,1.409578,11,1,-0.738611,-3.452439,7.923611,6.702290,6.122138,17.480916,-2.940776,4.885578,-16.343580,-163.7135,5.4650,17.1707
28377,55.590892,37.671497,171.399993,1.409578,11,1,-1.175553,-3.434482,10.326192,12.412213,10.213740,5.480916,-3.576051,5.628683,-18.486375,-162.3522,4.4978,16.2157
28477,55.590892,37.671497,171.399993,1.409578,11,1,-1.215057,-2.313996,11.486183,-15.984732,-37.251907,-19.419845,-4.199869,4.299571,-19.937698,-163.7163,7.4589,19.2048
28577,55.590892,37.671497,171.399993,1.409578,11,1,-0.162806,-2.803610,9.196129,-34.458011,-28.045801,-21.862592,-3.243617,3.897377,-17.976407,-166.7844,9.5380,22.1144
28677,55.590892,37.671497,171.399993,1.409578,11,1,-0.016759,-2.716222,6.817489,-9.664123,-1.847328,-21.984733,-2.604661,3.365524,-15.785386,-167.3841,9.2152,24.3275
28777,55.590892,37.671497,171.399993,1.409578,11,1,-0.316035,-3.038242,7.787141,2.839694,28.473281,-3.679389,-2.900085,3.846720,-16.644969,-167.1428,6.3563,24.0612
28877,55.590892,37.671497,171.399993,1.409578,11,1,-0.694318,-2.881422,8.708909,0.946565,13.267176,13.374045,-3.125795,3.832386,-17.563711,-167.2262,5.3604,22.4522
28977,55.590892,37.671497,171.399993,1.409578,11,1,-0.666785,-3.281253,10.384850,2.854962,0.564885,23.587783,-3.413739,4.614447,-19.086176,-167.1578,5.8268,20.1291
29077,55.590892,37.671497,171.399993,1.409578,11,1,-0.666785,-3.544615,10.687717,-0.977099,-9.007633,22.610687,-3.578309,4.911456,-19.309781,-167.4600,7.2076,18.1144
29177,55.590892,37.671497,171.399993,1.409578,11,1,-0.940921,-3.784036,8.207324,-26.442749,12.076336,11.022901,-3.150184,4.394327,-17.109435,-170.2735,6.2681,16.7656
29277,55.590892,37.671497,171.399993,1.409578,11,1,-0.918176,-2.843115,6.222530,-6.427480,-2.748092,2.076336,-2.581733,3.183045,-15.360848,-170.9336,6.5741,16.6064
29377,55.590892,37.671497,171.399993,1.409578,11,1,-1.211466,-3.088520,6.749255,16.030532,5.618320,5.786259,-2.953813,3.603943,-15.709669,-169.4066,6.1105,15.9421
29477,55.590892,37.671497,171.399993,1.409578,11,1,-0.956484,-3.214216,9.418790,9.480916,15.343511,-1.893130,-2.948984,4.393923,-18.289372,-168.4688,4.5674,15.8456
29577,55.590892,37.671497,171.399993,1.409578,11,1,-1.545457,-2.789245,11.097126,-9.694657,-14.793892,-7.877862,-3.879971,3.828158,-19.985332,-169.3530,5.8595,16.9166
29677,55.590892,37.671497,171.399993,1.409578,11,1,-1.537077,-2.557007,8.978257,-13.236640,-27.389312,-15.557251,-3.887139,2.902940,-17.929031,-170.4678,8.2638,18.9623
29777,55.590892,37.671497,171.399993,1.409578,11,1,-1.104924,-2.406173,8.214507,-4.824428,-15.297710,-24.763359,-3.553306,2.591450,-17.232756,-170.5588,9.3624,21.6860
29877,55.590892,37.671497,171.399993,1.409578,11,1,-1.164779,-2.363077,7.569269,-8.351145,13.083970,-15.236640,-3.319328,2.388788,-16.699431,-171.1815,7.8218,22.9918
29977,55.590892,37.671497,171.399993,1.409578,11,1,-1.183933,-2.227805,7.953538,-1.328244,20.106868,3.603053,-3.092434,2.396423,-17.176697,-171.4056,5.8901,22.3213
30077,55.590892,37.671497,171.399993,1.409578,11,1,-0.403423,-2.420538,10.436326,9.587787,14.900763,8.381680,-2.592266,3.391023,-19.641271,-170.5552,4.5420,21.2643
30177,55.590892,37.671497,171.399993,1.409578,11,1,-1.642422,-2.920926,10.431537,-24.717555,-6.977099,25.603055,-3.814702,3.064326,-19.609929,-173.2185,5.6504,18.8456
30277,55.590873,37.671508,171.899993,1.409578,11,1,-0.673968,-3.532644,9.018959,-22.870229,-32.671756,-11.389312,-3.346868,3.292248,-18.305768,-175.3555,8.7602,20.3697
30381,55.590873,37.671508,171.899993,0.817967,11,1,0.646434,-2.103306,7.915231,-3.297710,-29.786256,-11.022901,-1.882997,2.176757,-17.501369,-175.4837,11.7550,21.7796
30481,55.590873,37.671508,171.899993,0.817967,11,1,-0.584185,-3.259706,7.395689,0.259542,28.564884,4.473282,-2.945598,2.955746,-16.752885,-175.5974,8.9426,21.0944
30581,55.590873,37.671508,171.899993,0.817967,11,1,-0.231040,-3.063381,8.971075,22.244272,14.854961,-14.580152,-2.791173,3.293386,-18.249448,-173.1621,7.3496,22.4506
30681,55.590873,37.671508,171.899993,0.817967,11,1,-0.282516,-2.415750,10.517728,-1.969466,-6.076336,-5.770992,-2.964141,2.682769,-19.834356,-173.2758,7.8842,23.1013
30781,55.590873,37.671508,171.899993,0.817967,11,1,-1.197101,-1.812411,9.886857,3.648855,-14.061070,-14.961832,-3.729902,1.645718,-19.072030,-172.6824,9.1054,24.7675
30881,55.590873,37.671508,171.899993,0.817967,11,1,-0.733823,-1.708263,8.791509,-0.809160,-4.106870,-24.381679,-3.160998,1.589142,-18.066796,-172.3673,9.2022,27.2697
30981,55.590873,37.671508,171.899993,0.817967,11,1,-0.658405,-1.681927,7.095217,-14.656488,0.641221,-19.709922,-2.698906,1.322331,-16.482863,-173.5179,8.8769,29.2401
31081,55.590873,37.671508,171.899993,0.817967,11,1,-1.418565,-1.651999,7.959524,-7.603053,24.167938,-4.610687,-3.182775,1.007450,-17.353201,-174.2493,6.4235,29.4276
31181,55.590873,37.671508,171.899993,0.817967,11,1,-1.055843,-2.061408,10.194511,13.114503,9.969466,3.450382,-3.335967,1.913848,-19.527801,-172.9877,5.4661,28.9816
31281,55.590873,37.671508,171.899993,0.817967,11,1,-1.072602,-2.844312,10.692505,-10.641222,21.816793,21.297710,-3.276295,2.716765,-20.075795,-174.2796,3.5608,26.5905
31381,55.590873,37.671508,171.899993,0.817967,11,1,-0.706290,-2.893393,9.549274,-14.000000,-2.458015,6.870229,-2.772467,2.652607,-19.044415,-175.7206,3.8738,25.9302
31481,55.590873,37.671508,171.899993,0.817967,11,1,-0.942118,-2.061408,8.136695,-17.923664,-24.458013,-8.427481,-2.712644,1.337988,-17.692977,-177.4437,6.2499,26.9554
31581,55.590873,37.671508,171.899993,0.817967,11,1,-0.855927,-2.390610,7.037756,-18.977098,-2.992366,12.335878,-2.558541,1.492247,-16.677218,-179.4749,6.6039,25.7291
31681,55.590873,37.671508,171.899993,0.817967,11,1,-0.709881,-2.997540,8.453927,8.229008,6.076336,-2.900763,-2.824496,2.182700,-18.065954,-178.6191,5.9936,26.0155
31781,55.590873,37.671508,171.899993,0.817967,11,1,-0.248997,-2.796427,10.910378,21.328245,3.954198,-2.931298,-2.693665,2.534243,-20.448085,-176.4565,5.5913,26.3006
31881,55.590873,37.671508,171.899993,0.817967,11,1,-1.557428,-2.239776,10.445902,2.427481,-12.183207,-2.687023,-3.782344,1.381111,-19.823908,-176.1801,6.7906,26.6457
31981,55.590873,37.671508,171.899993,0.817967,11,1,-1.137246,-1.868674,8.823831,0.427481,-15.404581,-15.114503,-3.262191,1.070604,-18.224321,-175.9456,8.2270,28.2678
32081,55.590873,37.671508,171.899993,0.817967,11,1,-0.363919,-1.558625,7.708132,3.511450,-0.702290,-18.274806,-2.334447,1.167292,-17.233953,-175.3301,8.1678,30.1147
32181,55.590873,37.671508,171.899993,0.817967,11,1,-0.784101,-1.314417,8.286333,-6.916030,6.610687,-9.526717,-2.553443,0.686832,-17.807526,-175.8932,7.4314,31.0195
32300,55.590873,37.671508,171.899993,0.817967,11,1,-0.687136,-2.110489,9.537302,-6.381680,5.129771,12.229007,-2.877300,1.395458,-19.061934,-176.8476,6.9267,29.5116
32400,55.590873,37.671508,171.899993,0.817967,11,1,-0.630872,-3.017891,11.301830,8.885497,-5.053435,7.389312,-3.635042,2.326917,-20.697424,-176.0453,7.4720,28.7964
32500,55.590873,37.671508,171.899993,0.817967,11,1,-0.290895,-2.704251,9.170990,-13.694657,-8.030535,23.923662,-2.813292,2.025993,-18.722108,-177.7206,8.4381,26.4451
32600,55.590873,37.671508,171.899993,0.817967,11,1,-0.769736,-2.694674,7.829040,-0.091603,-9.984732,3.038168,-3.140759,1.796050,-17.293803,-177.7689,9.4479,26.1784
32700,55.590873,37.671508,171.899993,0.817967,11,1,-0.509965,-1.693898,8.246829,-5.251908,5.786259,10.961833,-2.416649,0.981262,-17.827652,-178.4801,8.9123,25.0451
32800,55.590873,37.671508,171.899993,0.817967,11,1,0.177171,-1.928529,9.652225,-14.015268,16.687023,-7.786259,-1.789757,1.320760,-19.396667,-179.7665,7.2236,25.7882
32900,55.590873,37.671508,171.899993,0.817967,11,1,-0.426168,-2.296039,11.501746,6.824427,1.083969,-17.618320,-2.799381,1.386228,-21.119714,-178.8608,7.1080,27.5637
33000,55.590873,37.671508,171.899993,0.817967,11,1,-1.083376,-1.401805,9.014170,-26.992364,-0.335878,-36.167938,-2.506925,-0.084064,-18.644200,-181.1090,7.0697,31.2084
33100,55.590873,37.671508,171.899993,0.817967,11,1,-0.843956,-2.205060,7.580042,3.816794,4.091603,-17.419847,-2.609647,0.854920,-17.255841,-180.5104,6.6943,32.9714
33200,55.590873,37.671508,171.899993,0.817967,11,1,-0.978031,-1.119289,7.091625,12.458016,12.870229,-23.297710,-2.059490,0.065224,-16.753214,-178.9898,5.4281,35.3286
33300,55.590873,37.671508,171.899993,0.817967,11,1,-2.151190,-1.886631,8.112753,-5.236641,14.885496,-7.190839,-3.339593,0.000787,-17.734504,-179.4476,3.9271,36.0245
33400,55.590873,37.671508,171.899993,0.817967,11,1,-1.466449,-1.459266,9.873688,-0.748092,-3.984733,-7.679389,-2.694215,-0.078920,-19.527999,-179.4695,4.3181,36.7980
33500,55.590873,37.671508,171.899993,0.817967,11,1,-1.994370,-2.391808,11.204864,-3.312977,12.564886,24.061069,-3.493461,0.512148,-20.887294,-179.9833,3.0840,34.3735
33600,55.590873,37.671508,171.899993,0.817967,11,1,-0.644040,-2.245761,8.919599,1.603053,2.137405,-8.259542,-2.204605,1.235286,-18.674077,-179.7785,2.8700,35.2006
33700,55.590873,37.671508,171.899993,0.817967,11,1,-0.645237,-1.859098,8.259996,-3.832061,-21.786258,-15.083970,-2.201542,0.661764,-17.980718,-180.0857,5.0428,36.7193
33800,55.590873,37.671508,171.899993,0.817967,11,1,0.003591,-2.067393,8.732851,-14.259541,-11.251908,-4.076336,-1.861313,0.900964,-18.539381,-181.4758,6.1686,37.1268
33900,55.590873,37.671508,171.899993,0.817967,11,1,-0.047884,-1.929727,9.088390,-17.801527,1.969466,-3.496183,-1.659020,0.512894,-18.934057,-183.2176,5.9807,37.4835
34000,55.590873,37.671508,171.899993,0.817967,11,1,-1.076194,-2.439692,9.765949,9.801527,4.244274,3.435115,-2.850368,0.412782,-19.511755,-182.2709,5.5377,37.1626
34100,55.590873,37.671508,171.899993,0.817967,11,1,-0.711078,-0.908600,9.478645,17.114503,5.419847,-22.229007,-1.737463,-0.325140,-19.190221,-180.3420,5.0842,39.4157
34200,55.590873,37.671508,171.899993,0.817967,11,1,-1.013944,-1.757344,8.944738,-8.564885,1.603053,-10.061069,-2.383381,0.050366,-18.663378,-181.1089,4.9299,40.4268
34350,55.590873,37.671508,171.899993,0.817967,11,1,-1.262941,-1.260547,7.173028,-20.916030,5.923664,-8.702290,-1.816161,-0.628753,-16.944055,-184.1323,4.0668,41.7540
34450,55.590873,37.671508,171.899993,0.817967,11,1,-1.339556,-1.714248,8.632295,-3.282443,10.809160,7.511450,-2.022813,-0.396426,-18.466941,-184.5083,2.9345,41.0810
34550,55.590873,37.671508,171.899993,0.817967,11,1,-2.091335,-2.263718,10.257958,3.297710,5.282443,28.244272,-2.871339,-0.376249,-20.118665,-184.3207,2.1859,38.3032
34650,55.590873,37.671508,171.899993,0.817967,11,1,-0.474052,-1.625663,8.804677,-29.862594,-19.664121,15.221373,-1.171963,-0.269961,-18.691664,-187.3705,4.0321,36.6360
34750,55.590873,37.671508,171.899993,0.817967,11,1,-1.009156,-2.513912,8.784326,-24.290075,-23.694654,16.412212,-2.174758,-0.337527,-18.731841,-189.9357,6.1714,34.6996
34850,55.590873,37.671508,171.899993,0.817967,11,1,-1.367089,-2.097321,7.210138,-11.206108,-12.885497,9.190840,-2.284740,-0.724201,-17.052978,-191.1782,7.2821,33.5654
34950,55.590873,37.671508,171.899993,0.817967,11,1,-0.966060,-2.254141,7.611167,2.167939,2.335878,-6.152672,-2.045204,-0.451035,-17.524033,-190.8785,7.1722,34.2195
35050,55.590873,37.671508,171.899993,0.817967,11,1,-0.945710,-2.644396,9.090785,2.015267,14.045802,-9.343512,-2.109055,-0.347559,-19.078147,-190.5282,5.9692,35.4115
35150,55.590873,37.671508,171.899993,0.817967,11,1,-0.111330,-1.321599,10.140642,-13.358779,2.946565,-23.480915,-0.487187,-1.323556,-19.935939,-191.6171,6.1085,37.7868
35250,55.590873,37.671508,171.899993,0.817967,11,1,-1.525106,-2.686294,11.723209,-8.519084,16.412212,-18.763359,-2.038736,-1.525445,-21.659596,-192.2369,4.8788,39.9675
35350,55.590873,37.671508,171.899993,0.817967,11,1,-1.296460,-1.189918,8.392874,-13.435114,7.022901,-25.954198,-0.934475,-1.922324,-18.111376,-193.3512,4.7425,42.6626
35450,55.590873,37.671508,171.899993,0.817967,11,1,-1.258153,-2.191892,8.050503,12.366412,-9.633587,-38.854961,-1.882988,-1.248112,-17.936503,-191.8194,6.5771,46.2329
35550,55.590873,37.671508,171.899993,0.817967,11,1,-1.605312,-1.589750,7.058106,-2.503817,1.343511,-12.000000,-1.719313,-1.730255,-16.804605,-191.9312,6.6914,47.4429
35650,55.590873,37.671508,171.899993,0.817967,11,1,-0.875081,-2.106898,10.371683,19.236640,12.259541,-14.396947,-1.501548,-1.263124,-20.243434,-189.8125,5.7895,49.1163
35750,55.590873,37.671508,171.899993,0.817967,11,1,-1.753753,-2.069787,10.612299,-3.282443,36.015266,23.068700,-1.522175,-1.455238,-20.555874,-190.3090,1.8476,47.4485
35850,55.590873,37.671508,171.899993,0.817967,11,1,-1.505953,-1.976413,9.684546,-11.496184,-10.824428,-17.450380,-1.368227,-1.539588,-19.590420,-191.4095,3.2248,48.9725
35950,55.590873,37.671508,171.899993,0.817967,11,1,-1.460463,-1.830367,8.317457,-19.297710,-32.152671,-17.022899,-1.472897,-1.956995,-18.093026,-193.2811,6.7133,50.0067
36050,55.590873,37.671508,171.899993,0.817967,11,1,-0.912191,-2.455254,7.018602,-20.290077,-1.328244,-5.541985,-1.551396,-1.061244,-17.058413,-195.2502,6.9699,50.5191
36150,55.590873,37.671508,171.899993,0.817967,11,1,-0.189142,-2.333150,8.918402,17.725191,26.259540,-33.297710,-0.822787,-0.692078,-18.964232,-193.0005,5.3122,54.4514
36254,55.590873,37.671508,171.899993,0.817967,11,1,-1.593341,-1.890222,10.747571,11.587787,4.290076,2.534351,-1.177536,-2.237120,-20.541205,-191.8099,4.8182,54.2942
36399,55.590827,37.671566,172.399993,0.817967,11,1,-0.767342,-0.399832,9.198523,-30.305343,-10.564886,-29.312974,0.818393,-2.723784,-18.597141,-195.8799,7.1876,58.1548
36499,55.590827,37.671566,172.399993,0.817967,11,1,-1.462857,-1.369483,7.545327,-9.099237,-16.000000,-21.312976,-0.620167,-2.736395,-17.091904,-196.5865,9.3097,59.7797
36599,55.590827,37.671566,172.399993,0.817967,11,1,-1.406593,-1.620874,7.234080,12.809160,2.122137,-8.595420,-0.983637,-2.419678,-16.885864,-195.1606,9.3517,60.6759
36699,55.590827,37.671566,172.399993,0.817967,11,1,-1.813608,-1.885434,8.956709,8.458015,12.580152,6.183206,-1.170478,-2.859961,-18.611040,-194.3589,7.9758,60.4045
36799,55.590827,37.671566,172.399993,0.817967,11,1,-1.502362,-1.729811,10.477027,-3.740458,7.755725,15.450381,-0.533492,-2.886634,-20.121695,-194.9158,6.8412,59.0873
36899,55.590827,37.671566,172.399993,0.817967,11,1,-1.515530,-1.680730,11.112688,-17.526718,-9.648856,27.526718,-0.232754,-3.301173,-20.653843,-197.0173,7.0651,56.1581
36999,55.590827,37.671566,172.399993,0.817967,11,1,-1.344344,-2.218228,8.740034,-38.610687,5.954198,22.503814,-0.439962,-2.454937,-18.575670,-201.1235,5.8371,54.1654
37099,55.590827,37.671566,172.399993,0.817967,11,1,-1.347936,-1.934515,7.001843,13.541985,-0.763359,6.381680,-0.775965,-1.985448,-16.880613,-199.8330,5.6784,53.5394
37199,55.590827,37.671566,172.399993,0.817967,11,1,-1.765724,-1.538275,8.277953,0.961832,0.656488,7.419847,-0.448484,-2.840232,-17.914703,-199.8040,5.3649,52.8603
37299,55.590827,37.671566,172.399993,0.817967,11,1,-1.880645,-1.258153,8.995017,-9.343512,1.877863,-0.106870,-0.010168,-3.344038,-18.458090,-200.7314,5.1918,52.9343
37399,55.590827,37.671566,172.399993,0.817967,11,1,-2.730587,-1.242591,10.229228,8.854962,-9.526717,-13.557251,-0.427706,-4.468131,-19.475679,-199.7614,6.5627,53.8689
37499,55.590827,37.671566,172.399993,0.817967,11,1,-0.051475,-0.852336,9.573216,-24.442749,-9.923664,-47.969467,1.536919,-2.736894,-18.890861,-201.7249,9.1185,58.0754
37599,55.590827,37.671566,172.399993,0.817967,11,1,-0.581791,-1.741782,8.729260,2.427481,-13.603053,-42.961833,0.174774,-2.810784,-18.270763,-200.9224,11.9724,61.6075
37699,55.590827,37.671566,172.399993,0.817967,11,1,-0.936133,-2.179921,6.848614,-5.160305,-5.679389,-33.618320,-0.761063,-2.527297,-16.556870,-200.8155,13.7034,64.6102
37799,55.590827,37.671566,172.399993,0.817967,11,1,-0.921768,-1.985990,9.204509,3.770992,4.534351,-15.526718,-0.077304,-3.379579,-18.643463,-200.0452,13.8313,66.2699
37899,55.590827,37.671566,172.399993,0.817967,11,1,-0.572214,-2.142811,10.864888,-6.778625,-4.045802,-4.824428,0.377848,-3.722802,-20.245177,-200.6457,14.3768,66.5938
37999,55.590827,37.671566,172.399993,0.817967,11,1,-0.726640,-3.361459,12.155363,-14.259541,-20.167938,6.351145,-0.355409,-4.414258,-21.637469,-202.4062,16.0401,65.2462
38099,55.590827,37.671566,172.399993,0.817967,11,1,1.589750,-3.432088,8.827423,-4.778625,-2.732824,1.786260,-0.216469,-1.133550,-19.340701,-202.9615,16.2247,64.9660
38199,55.590827,37.671566,172.399993,0.817967,11,1,-0.875081,-1.770512,8.112753,8.931297,21.694656,9.038168,0.085440,-3.143025,-17.541722,-202.0643,13.8745,64.9807
38347,55.590827,37.671566,172.399993,0.817967,11,1,-1.696292,-1.687912,8.738837,16.244274,15.587786,-12.198472,-0.193838,-3.760964,-18.047481,-199.0328,12.4147,67.5968
38447,55.590827,37.671566,172.399993,0.817967,11,1,-1.516727,-2.036268,9.649830,1.236641,0.137405,-31.190839,-0.216400,-3.899147,-18.989019,-198.2591,13.4188,70.6206
38547,55.590827,37.671566,172.399993,0.817967,11,1,-0.337582,-1.514333,10.010158,-29.328243,-19.007633,-45.374042,1.129739,-3.598164,-19.208104,-200.3059,16.6455,74.4382
38647,55.590827,37.671566,172.399993,0.817967,11,1,0.936133,-1.219846,9.582793,0.427481,-24.061069,-37.404579,1.465937,-2.774363,-18.990779,-199.4640,20.2002,77.2281
38747,55.590827,37.671566,172.399993,0.817967,11,1,1.277307,-1.158794,9.340978,-7.938931,17.557250,-27.832059,1.628797,-2.158174,-18.912554,-199.0772,19.4722,80.6476
38847,55.590827,37.671566,172.399993,0.817967,11,1,-0.556652,-1.268927,7.945158,7.450381,33.129772,-15.572519,0.832671,-2.956417,-17.263984,-197.4289,16.8501,83.3571
38947,55.590827,37.671566,172.399993,0.817967,11,1,-2.086547,-0.918176,7.164649,-4.274809,15.679389,-21.190837,0.946853,-4.043199,-16.074419,-197.1018,15.9889,85.9603
39047,55.590827,37.671566,172.399993,0.817967,11,1,-2.387019,-0.954089,7.896077,-15.282442,-2.076336,-13.190839,1.349982,-4.583213,-16.598401,-198.2863,16.5752,87.2083
39147,55.590827,37.671566,172.399993,0.817967,11,1,-2.516306,-2.832341,8.725668,-6.564885,6.335877,-9.175572,-0.043144,-4.985229,-17.908308,-198.6243,16.2615,88.3247
39247,55.590827,37.671566,172.399993,0.817967,11,1,0.660800,-3.125630,10.259155,-22.152671,2.946565,5.740458,0.667364,-2.303484,-20.280669,-200.9708,15.7990,87.8561
39347,55.590827,37.671566,172.399993,0.817967,11,1,0.478840,-3.515885,11.386824,7.328244,7.328244,6.549618,0.546581,-2.619287,-21.429519,-200.3368,14.8803,87.4931
39447,55.590827,37.671566,172.399993,0.817967,11,1,-0.417788,-3.869030,9.165004,13.572520,-29.709920,-1.679389,-0.840122,-3.376337,-19.135947,-199.2121,17.7245,86.5876
39547,55.590827,37.671566,172.399993,0.817967,11,1,-0.062249,-2.952051,7.722497,12.458016,-20.595417,-15.816794,-0.592803,-2.883737,-17.532456,-197.7055,20.1898,87.4442
39647,55.590827,37.671566,172.399993,0.817967,11,1,0.002394,-3.057395,8.295909,-1.160305,12.412213,-3.267176,-0.502376,-2.874126,-18.152715,-197.5683,19.1067,88.1780
39747,55.590827,37.671566,172.399993,0.817967,11,1,-0.294487,-2.791639,9.728839,-11.419848,5.221374,-16.274808,0.371405,-3.588065,-19.268052,-198.1182,19.1002,89.9868
39847,55.590827,37.671566,172.399993,0.817967,11,1,0.087388,-3.069367,10.509348,-3.496183,15.496183,-25.175573,0.405598,-3.357313,-20.220054,-197.4723,18.4103,93.0289
39947,55.590827,37.671566,172.399993,0.817967,11,1,-0.495600,-1.631648,9.665392,-17.038167,23.877862,-17.282442,1.806572,-3.091018,-18.945009,-198.3888,16.6516,95.5219
40047,55.590827,37.671566,172.399993,0.817967,11,1,-1.424550,-2.066196,8.270771,-9.374046,-23.954196,-9.328244,1.185928,-4.042355,-17.353643,-199.2875,19.2189,95.6571
40147,55.590827,37.671566,172.399993,0.817967,11,1,-1.071405,-1.683124,6.479907,-0.824427,-5.267175,-18.549615,0.917153,-3.233551,-15.695027,-198.8202,20.3288,97.3271
40247,55.590827,37.671566,172.399993,0.817967,11,1,-0.281319,-1.859098,8.300698,0.045802,14.106870,16.702289,1.287318,-2.820409,-17.732877,-199.2327,18.4547,96.1264
40383,55.590805,37.671443,170.500000,0.817967,11,1,-0.750582,-2.224213,9.388862,-35.587787,6.000000,-34.687023,2.249735,-3.479083,-18.552844,-202.4966,19.2382,101.1054
40483,55.590805,37.671443,170.500000,0.817967,11,1,0.897826,-3.697844,10.832566,-15.786260,-195.435119,-62.519084,2.209475,-6.306666,-19.143074,-204.6691,39.6867,99.3030
40583,55.590805,37.671443,170.500000,0.817967,11,1,4.724957,-2.456451,8.404846,-35.251907,-78.183197,-9.435114,2.416534,-2.780184,-19.049579,-210.1906,47.1853,96.1768
40683,55.590805,37.671443,170.500000,0.817967,11,1,8.555680,-3.737349,4.807557,-4.625954,-46.152667,48.580150,0.045446,1.065503,-20.253787,-217.6905,48.7315,86.5834
40783,55.590805,37.671443,170.500000,0.817967,11,1,6.039374,-3.232172,1.387440,54.198474,197.038146,-47.328239,-3.883838,2.415707,-15.091168,-194.2750,36.0330,110.5256
40883,55.590805,37.671443,170.500000,0.817967,11,1,-0.173580,-5.317522,9.949106,-22.488550,103.801521,-121.938926,-0.090487,-6.720225,-18.868729,-186.0658,28.9801,128.3039
40983,55.590805,37.671443,170.500000,0.817967,11,1,4.572925,-5.943606,13.505692,5.709924,47.877861,34.564884,-2.582700,-3.678371,-24.586402,-187.1183,23.8539,124.9531
41083,55.590805,37.671443,170.500000,0.817967,11,1,2.432509,-1.193510,9.460688,-30.916030,46.259536,-41.664123,0.723310,-0.616555,-19.601693,-188.1283,19.7799,130.1004
41183,55.590805,37.671443,170.500000,0.817967,11,1,2.024297,-1.935712,7.131130,20.366413,-111.206100,-93.435111,0.578047,-2.550344,-17.007996,-183.3307,32.1098,138.2590
41283,55.590805,37.671443,170.500000,0.817967,11,1,4.855441,-1.181539,7.824251,55.282444,95.587783,33.877861,-1.947776,0.197983,-18.881738,-179.5763,22.3704,134.9218
41383,55.590805,37.671443,170.500000,0.817967,11,1,0.624887,-2.199074,9.578004,16.488550,-3.343511,-35.786254,0.463569,-4.110724,-18.742624,-176.4537,22.6783,138.7942
41483,55.590805,37.671443,170.500000,0.817967,11,1,2.898181,-1.397017,8.275559,-24.656486,-54.763355,13.129771,-0.004130,-2.015340,-18.453868,-179.3254,28.2253,137.7411
41583,55.590805,37.671443,170.500000,0.817967,11,1,2.887407,-1.762132,5.882554,46.244274,19.816791,66.961830,-1.482295,-1.243968,-16.310650,-178.3075,26.3226,130.1153
41683,55.590805,37.671443,170.500000,0.817967,11,1,2.822764,-2.726996,12.089522,7.175572,44.793888,10.274808,-1.265556,-3.392951,-21.990545,-178.1635,21.8755,128.8219
41783,55.590805,37.671443,170.500000,0.817967,11,1,8.763976,0.227449,6.981492,10.244275,15.587786,20.534351,-3.458774,4.633773,-19.406925,-177.9831,20.3834,126.5564
41883,55.590805,37.671443,170.500000,0.817967,11,1,3.078943,-0.718261,6.992266,24.335876,39.664123,-22.549617,-1.690114,-0.058078,-17.291816,-174.7641,16.3401,128.8116
41984,55.590805,37.671443,170.500000,0.817967,11,1,1.498770,0.418985,10.135853,54.946563,-5.297709,14.839694,-0.209809,-2.052699,-19.851538,-169.6377,17.0097,127.3071
42084,55.590805,37.671443,170.500000,0.817967,11,1,4.356250,0.982820,7.048530,27.541984,-20.000000,-33.618320,-1.841238,0.920525,-17.892879,-165.7618,18.3723,131.1416
42184,55.590805,37.671443,170.500000,0.817967,11,1,3.743334,-0.942118,9.451111,-112.183204,121.404571,-113.725189,-3.588441,0.591951,-19.345849,-174.3108,3.8077,139.6104
42284,55.590797,37.671394,170.100006,0.817967,11,1,0.469264,-3.262100,4.728549,-30.106868,-24.229007,-6.961832,-2.196728,-2.704875,-14.397807,-177.2594,6.1497,140.5454
42391,55.590797,37.671394,170.100006,2.356155,11,1,2.706645,-1.380257,9.700109,-57.480907,-25.587783,-129.832061,-1.615305,-0.404793,-19.834116,-181.9007,8.2202,154.6336
42491,55.590797,37.671394,170.100006,2.356155,11,1,6.618771,-0.137667,10.490195,-30.198471,112.931289,-20.610685,-6.320998,3.429139,-19.913938,-184.5688,-2.9983,157.0933
42591,55.590797,37.671394,170.100006,2.356155,11,1,1.476025,-1.590947,6.302736,-30.091600,-153.343490,-20.625953,-0.323689,-0.668291,-16.431064,-187.6217,12.4516,157.9290
42691,55.590797,37.671394,170.100006,2.356155,11,1,6.712144,0.035913,3.775656,-40.473281,-32.900764,64.778625,-4.411958,3.480411,-15.072684,-193.1831,14.8534,150.9068
42791,55.590797,37.671394,170.100006,2.356155,11,1,8.248025,-2.911349,7.910442,-45.099235,-42.091598,96.442741,-4.179368,3.526750,-20.255376,-200.4380,16.7521,140.1990
42891,55.590797,37.671394,170.100006,2.356155,11,1,11.487380,-4.484340,5.213374,77.587783,34.473281,108.274803,-8.944017,5.842598,-17.876165,-195.3708,9.7409,130.8605
42991,55.590797,37.671394,170.100006,2.356155,11,1,3.446453,-2.008735,6.807912,12.961832,42.717552,-65.923667,-2.177904,1.325892,-17.273876,-192.7891,7.3694,138.4589
43091,55.590797,37.671394,170.100006,2.356155,11,1,7.414843,-3.602077,7.896077,0.992366,226.106872,-20.167938,-8.721400,3.674985,-16.189013,-191.7881,-14.2339,145.4889
43191,55.590797,37.671394,170.100006,2.356155,11,1,2.938883,-2.135628,6.694188,17.450380,11.816793,22.977098,-4.390886,2.016809,-15.694154,-189.5337,-15.8601,143.4175
43291,55.590797,37.671394,170.100006,2.356155,11,1,0.961272,-3.078943,11.410766,-41.068702,1.312977,58.793891,-3.644640,2.481589,-20.814276,-191.9995,-16.9634,137.4125
43392,55.590797,37.671394,170.100006,2.356155,11,1,0.549469,-4.029441,10.867282,-10.732825,102.152671,19.862594,-5.257580,2.831896,-19.755235,-193.1393,-27.4724,137.6035
43492,55.590797,37.671394,170.100006,2.356155,11,1,2.322376,-0.429759,13.772645,60.839691,-8.916030,-13.374045,-5.217688,6.422967,-21.066539,-187.6271,-26.3002,138.8430
43592,55.590797,37.671394,170.100006,2.356155,11,1,-2.826355,-0.676362,7.425617,-5.816794,57.053432,51.908397,-1.061096,1.257490,-17.609107,-186.0402,-32.6440,133.9487
43692,55.590797,37.671394,170.100006,2.356155,11,1,2.074576,0.033519,6.138733,22.793893,13.541985,11.725191,-3.228847,4.034362,-13.716573,-183.1052,-34.1140,132.7332
43792,55.590797,37.671394,170.100006,2.356155,11,1,-3.537433,-2.030283,8.851365,-33.221374,-36.213741,-31.053434,-1.591954,0.532713,-19.406861,-188.3949,-30.3298,136.2415
43892,55.590797,37.671394,170.100006,2.356155,11,1,-1.198298,-1.183933,9.284714,-27.923662,5.465648,9.709923,-2.296453,3.062013,-18.431840,-190.6720,-31.0122,135.2210
43992,55.590797,37.671394,170.100006,2.356155,11,1,-2.416947,-1.832761,12.004528,-9.221375,-21.801527,7.221374,-2.272381,3.045108,-21.591086,-190.9248,-29.0035,133.9220
44092,55.590797,37.671394,170.100006,2.356155,11,1,2.135628,-0.798466,11.458650,15.465649,-8.229008,31.160303,-4.223679,6.109347,-18.825271,-187.5956,-28.7861,130.2454
44192,55.590797,37.671394,170.100006,2.356155,11,1,1.010353,-1.254562,7.023391,-2.778626,-17.480916,12.015268,-2.889619,3.011517,-15.680629,-187.0921,-27.2122,128.6228
44341,55.590797,37.671394,170.100006,2.356155,11,1,0.389058,-0.916979,8.030153,18.213739,-22.824424,8.427481,-2.514420,2.661985,-17.022404,-183.5216,-23.9924,126.7495
44441,55.590797,37.671394,170.100006,2.356155,11,1,0.679953,-1.794454,8.546103,-35.099235,-24.000000,-9.267176,-2.876652,2.617241,-17.654784,-187.3776,-21.5400,127.6006
44541,55.590797,37.671394,170.100006,2.356155,11,1,2.784456,-1.634043,13.400347,-9.251908,-40.412208,6.396946,-3.825175,5.551576,-21.829155,-187.8476,-17.6144,126.3606
44641,55.590797,37.671394,170.100006,2.356155,11,1,-1.171962,-0.881066,9.848549,12.030535,8.351145,-15.526718,-0.941065,1.775685,-19.558831,-187.1691,-18.2297,128.0941
44741,55.590797,37.671394,170.100006,2.356155,11,1,1.170765,0.464475,7.310695,10.458016,-44.351146,-32.305339,-0.817819,3.009408,-16.537722,-186.9967,-13.4260,130.8860
44841,55.590797,37.671394,170.100006,2.356155,11,1,1.777695,-0.348356,7.934384,22.946563,27.954196,-3.816794,-2.356325,3.143901,-16.934035,-184.8737,-16.1542,131.6256
44941,55.590797,37.671394,170.100006,2.356155,11,1,0.659603,-0.727837,8.078037,-27.526718,-19.068702,-21.404581,-1.489858,2.184929,-17.502487,-188.1972,-14.0723,133.6773
45041,55.590797,37.671394,170.100006,2.356155,11,1,-0.193930,-0.954089,8.838196,-23.221374,0.000000,-1.022901,-0.868942,1.888686,-18.451846,-190.5448,-14.0577,133.7816
45142,55.590797,37.671394,170.100006,2.356155,11,1,1.344344,-0.041899,10.578781,11.664122,25.572519,19.007633,-1.723236,4.292001,-19.415438,-189.0124,-16.9483,132.3233
45242,55.590797,37.671394,170.100006,2.356155,11,1,-0.703895,-2.539051,10.849326,0.809160,-13.908397,10.580153,-2.210294,1.172947,-20.687317,-188.5467,-15.7403,131.0031
45342,55.590797,37.671394,170.100006,2.356155,11,1,1.636437,-0.398635,9.170990,-20.366413,-0.259542,-7.389312,-1.688593,3.880916,-18.115142,-190.7882,-15.6049,131.7583
45442,55.590797,37.671394,170.100006,2.356155,11,1,2.379837,-0.448913,9.801862,6.916030,-6.977099,12.015268,-2.212634,4.473599,-18.583484,-189.7305,-15.1444,130.3973
45542,55.590797,37.671394,170.100006,2.356155,11,1,-0.645237,-0.938527,6.959944,-12.946565,7.389312,7.832060,-0.540596,1.258198,-16.724936,-190.8500,-16.0051,129.7269
45642,55.590797,37.671394,170.100006,2.356155,11,1,0.228646,-0.948104,9.324219,-27.709922,7.587786,-17.099237,-0.871738,3.027161,-18.636634,-194.1437,-16.4284,131.6226
45742,55.590797,37.671394,170.100006,2.356155,11,1,2.736572,-0.855927,12.417528,0.427481,9.114504,-4.412214,-2.542939,6.117128,-20.693828,-194.2927,-17.2044,132.3008
45842,55.590797,37.671394,170.100006,2.356155,11,1,0.809240,-0.037110,12.905944,7.343511,-18.335878,8.335878,-0.541190,5.050997,-21.698419,-193.1681,-15.6334,130.9814
45942,55.590797,37.671394,170.100006,2.356155,11,1,0.402226,-0.203507,9.937134,-17.007633,-30.946565,-30.000000,0.153669,3.421488,-19.145796,-195.4890,-11.9366,133.2826
46042,55.590797,37.671394,170.100006,2.356155,11,1,0.344765,-0.497994,5.647922,-18.916030,1.343511,-23.358777,-0.145102,1.902930,-15.156761,-197.8641,-11.4423,135.6201
46142,55.590797,37.671394,170.100006,2.356155,11,1,-1.736993,-1.768118,8.044518,-24.366413,22.122135,-16.137403,0.692444,0.987016,-18.137555,-200.7490,-13.0528,137.8795
46244,55.590797,37.671394,170.100006,2.356155,11,1,1.145625,-1.053449,9.768343,-11.419848,26.274808,2.900763,-0.957052,4.437826,-18.594852,-202.0698,-15.6639,138.5702
46390,55.590782,37.671379,166.899993,2.356155,11,1,3.135207,-2.048239,12.649765,7.450381,3.221374,24.778623,-3.102664,6.482248,-20.869891,-200.0915,-17.4590,135.2718
46490,55.590782,37.671379,166.899993,2.356155,11,1,0.824802,-1.246182,6.548141,4.534351,-3.358778,35.740459,-1.229259,2.739626,-15.814544,-198.5461,-18.3713,131.6322
46590,55.590782,37.671379,166.899993,2.356155,11,1,1.083376,-1.783680,7.062895,-7.053435,-9.038168,3.541985,-1.651322,2.844608,-16.396115,-199.0444,-17.6271,130.9754
46690,55.590782,37.671379,166.899993,2.356155,11,1,0.214281,-1.230620,6.867768,6.503817,16.534349,17.038167,-0.889714,2.561458,-16.238906,-198.0537,-19.7460,129.8516
46790,55.590782,37.671379,166.899993,2.356155,11,1,0.310049,-0.902614,9.082405,-21.694656,-25.480915,-8.992367,-0.090800,3.686696,-18.161346,-200.2466,-17.0447,129.9210
46891,55.590782,37.671379,166.899993,2.356155,11,1,1.756147,-2.364274,11.468227,-9.572520,3.511450,-27.297708,-1.802741,5.062154,-20.357422,-202.0441,-16.4233,132.7549
46991,55.590782,37.671379,166.899993,2.356155,11,1,3.563769,-0.448913,12.797009,1.435114,19.083967,0.152672,-1.721848,8.209168,-20.117335,-202.1076,-18.1979,133.4869
47091,55.590782,37.671379,166.899993,2.356155,11,1,1.611298,0.010774,9.628283,7.007634,1.404580,6.335877,-0.425034,5.591461,-17.797591,-201.2312,-18.5665,132.9246
47191,55.590782,37.671379,166.899993,2.356155,11,1,0.434548,-0.830788,6.707356,-18.076335,-2.106870,-4.595420,-0.310411,3.061914,-15.839559,-203.1571,-18.2037,133.2960
47291,55.590782,37.671379,166.899993,2.356155,11,1,-0.408211,-1.555034,9.473856,-18.320610,1.160305,-1.847328,0.163731,3.609185,-18.710901,-205.0600,-18.2377,133.5228
47391,55.590782,37.671379,166.899993,2.356155,11,1,0.286107,-0.398635,9.676167,1.893130,1.679389,2.519084,0.554452,4.801763,-18.203353,-204.8189,-18.4966,133.3575
47491,55.590782,37.671379,166.899993,2.356155,11,1,1.631648,-2.333150,11.040862,-0.488550,7.877862,-7.099236,-1.720038,5.458222,-19.668485,-205.1940,-18.9136,134.3856
47591,55.590782,37.671379,166.899993,2.356155,11,1,0.948104,-1.290475,9.141062,-18.870227,0.656488,20.015266,-0.457009,4.819701,-17.724027,-206.4700,-19.8250,132.5007
47691,55.590782,37.671379,166.899993,2.356155,11,1,0.744597,-2.126051,9.459491,15.740458,-5.465648,-4.290076,-1.064895,4.199601,-18.512156,-204.9466,-19.1445,132.6499
47791,55.590782,37.671379,166.899993,2.356155,11,1,0.336385,-1.373075,6.871359,18.442749,-9.572520,15.267175,-0.633701,2.816562,-16.200355,-202.4816,-18.9205,130.7572
47891,55.590782,37.671379,166.899993,2.356155,11,1,0.597353,-0.937330,8.779538,-18.687023,-5.068702,14.030534,0.000430,4.259021,-17.563998,-203.8395,-18.9887,129.1819
47991,55.590782,37.671379,166.899993,2.356155,11,1,2.839523,-1.630451,13.316551,-37.618316,-10.595419,18.503814,-0.406569,8.136127,-20.837966,-206.8715,-18.7674,126.9391
48091,55.590782,37.671379,166.899993,2.356155,11,1,-1.710657,-1.227028,11.024102,-11.923664,-16.412212,-16.335878,2.490812,3.559306,-20.155078,-208.3070,-16.5650,127.6946
48191,55.590782,37.671379,166.899993,2.356155,11,1,-0.129287,-0.377087,10.352529,-23.297710,-15.847329,-20.931295,2.582310,4.769994,-18.633462,-210.9614,-14.1773,128.8332
48314,55.590782,37.671379,166.899993,2.356155,11,1,-1.423353,-1.735796,5.718551,-13.847329,19.038166,-27.083969,1.228111,1.216510,-15.701783,-213.6906,-14.4715,133.0222
48414,55.590782,37.671379,166.899993,2.356155,11,1,-1.460463,-1.798046,7.818265,-10.748091,6.076336,-20.717557,1.899155,2.412911,-17.360607,-215.2972,-13.8278,135.1506
48514,55.590782,37.671379,166.899993,2.356155,11,1,0.050278,-0.804452,8.115147,-6.106870,-8.137405,7.511450,1.741256,4.061575,-16.660621,-215.6413,-13.5977,134.0350
48614,55.590782,37.671379,166.899993,2.356155,11,1,0.126893,-2.278083,10.947487,-2.595420,-2.137405,14.427481,1.527834,5.006668,-19.688565,-215.5871,-14.2647,132.7005
48714,55.590782,37.671379,166.899993,2.356155,11,1,0.718261,-0.921768,8.400057,-5.007633,-5.603054,8.793892,1.446301,4.648627,-16.751072,-215.8232,-14.3208,131.6262
48814,55.590782,37.671379,166.899993,2.356155,11,1,0.670376,-1.707066,8.836999,2.061069,-10.732825,-11.007633,1.158357,4.351586,-17.628283,-215.6845,-12.8063,131.8990
48914,55.590782,37.671379,166.899993,2.356155,11,1,-0.626084,-1.224634,6.704962,1.083969,-9.496184,-11.893130,1.752735,2.404513,-15.970615,-215.6698,-11.3412,132.3216
49014,55.590782,37.671379,166.899993,2.356155,11,1,-0.140061,-1.521515,8.603565,-17.984733,-0.152672,-11.862596,2.063739,3.718466,-17.440126,-217.6598,-10.6371,133.2954
49114,55.590782,37.671379,166.899993,2.356155,11,1,1.346738,-1.738190,12.039244,-25.175573,19.511449,10.198473,2.180035,7.058885,-19.563596,-220.2496,-12.8048,133.6869
49214,55.590782,37.671379,166.899993,2.356155,11,1,-3.707421,-2.097321,9.961076,5.541985,-18.335878,-23.541982,4.886353,1.823661,-19.302153,-219.8345,-9.8843,134.3146
49314,55.590782,37.671379,166.899993,2.356155,11,1,0.353145,0.557849,7.642292,1.679389,-22.076335,-51.053436,3.058109,4.465682,-15.242290,-220.1033,-4.9187,136.8586
49414,55.590782,37.671379,166.899993,2.356155,11,1,1.571793,-0.290895,6.767211,8.946564,13.786259,-18.274806,1.135443,4.400044,-15.069793,-219.4053,-4.7960,139.1529
49514,55.590782,37.671379,166.899993,2.356155,11,1,-0.410606,-2.353500,9.241619,-18.854961,0.061069,-7.984733,2.628344,3.458198,-18.306518,-221.3429,-4.2938,139.7759
49614,55.590782,37.671379,166.899993,2.356155,11,1,-0.730232,-0.508768,7.596802,-10.259542,9.175572,2.320611,3.187386,3.523087,-15.800974,-222.4013,-5.1360,140.2090
49714,55.590782,37.671379,166.899993,2.356155,11,1,-0.080206,-0.758962,9.600749,-10.916030,3.679389,13.969465,3.365103,5.080976,-17.264304,-223.4225,-6.3497,139.4224
49814,55.590782,37.671379,166.899993,2.356155,11,1,-1.106121,-2.785654,9.809045,0.061069,0.900763,-4.610687,3.155501,3.519981,-18.909028,-223.4605,-6.0982,139.8217
49914,55.590782,37.671379,166.899993,2.356155,11,1,-0.474052,-1.361104,7.314286,-14.167939,-2.045801,0.717557,2.586692,3.305959,-15.967476,-224.8567,-5.9990,139.6278
50014,55.590782,37.671379,166.899993,2.356155,11,1,0.102951,-2.031480,9.636662,20.229005,-4.442748,-0.076336,2.584762,4.446956,-18.205838,-222.8015,-5.6787,139.3181
50114,55.590782,37.671379,166.899993,2.356155,11,1,-1.177947,-1.069011,6.585252,13.358779,1.786260,14.992366,2.731920,2.320865,-15.555223,-221.3683,-6.8284,138.3346
50214,55.590782,37.671379,166.899993,2.356155,11,1,-0.591368,-0.656011,8.407239,-15.740458,-0.473282,13.862596,3.330362,4.047032,-16.439293,-222.8140,-7.7091,137.2554
50364,55.590782,37.671417,167.699996,2.356155,11,1,-1.752556,-0.976834,9.683349,22.488550,-8.549619,-57.419841,4.622459,3.395856,-17.862327,-220.1780,-0.9148,142.7516
50464,55.590782,37.671417,167.699996,2.356155,11,1,3.300407,-0.073023,10.324995,-16.977096,9.465648,-32.396945,1.162997,7.482390,-17.563248,-221.9250,0.4521,145.8380
50564,55.590782,37.671417,167.699996,2.356155,11,1,1.403002,-0.776918,9.154231,-1.007634,-4.351145,-0.396947,2.065667,5.314495,-17.145664,-222.0278,0.8024,145.5768
50664,55.590782,37.671417,167.699996,2.356155,11,1,-2.061408,-1.624466,7.071275,-12.061069,-1.740458,-21.251909,3.934276,1.808486,-15.982577,-223.2135,2.3545,147.0390
50764,55.590782,37.671417,167.699996,2.356155,11,1,-1.157596,-1.517924,8.757990,-8.977100,13.175572,15.603053,3.745203,3.533552,-17.143814,-224.1208,0.3259,146.8038
50864,55.590782,37.671417,167.699996,2.356155,11,1,0.311246,-0.696713,10.295067,-20.274808,-8.931297,20.442749,3.706992,5.882383,-17.437277,-226.1602,-0.4562,144.7145
50964,55.590782,37.671417,167.699996,2.356155,11,1,-1.284489,-2.324770,11.371261,-22.244272,-42.167938,24.427478,5.540921,4.424316,-19.084778,-228.3469,0.7027,139.9809
51064,55.590782,37.671417,167.699996,2.356155,11,1,-0.515950,-1.764527,8.455123,-9.664123,-2.244275,18.625953,3.820749,3.647762,-16.659720,-229.3306,-0.5399,138.5752
51164,55.590782,37.671417,167.699996,2.356155,11,1,-0.112527,-1.431733,7.310695,23.114503,-12.748091,-7.480916,3.070863,3.118271,-15.836158,-227.0146,0.8583,138.0958
51264,55.590782,37.671417,167.699996,2.356155,11,1,-0.456095,-0.961272,7.009026,4.641222,1.709923,23.267175,3.305804,2.970492,-15.329905,-226.5724,-0.9603,136.6343
51364,55.590782,37.671417,167.699996,2.356155,11,1,0.463278,-0.497994,9.469068,-5.419847,-22.244272,-2.213740,4.383341,4.943601,-16.623761,-227.0898,0.7296,135.1708
51464,55.590782,37.671417,167.699996,2.356155,11,1,1.022324,-1.471237,11.493366,0.763359,-1.587786,-34.427482,4.642380,5.784179,-18.767606,-226.9851,3.3593,137.3987
51564,55.590782,37.671417,167.699996,2.356155,11,1,3.806781,0.219069,11.004948,17.465648,35.618320,-7.526717,2.265167,8.426080,-17.521483,-225.0556,1.4798,140.5219
51664,55.590782,37.671417,167.699996,2.356155,11,1,-0.213084,-0.059855,9.940726,-4.015267,-24.732822,13.679388,5.098675,4.895704,-16.799691,-225.5273,2.2587,137.8040
51764,55.590782,37.671417,167.699996,2.356155,11,1,0.009577,-0.349553,5.695806,-36.610687,-13.129771,-59.770988,2.955707,2.848841,-13.770535,-229.0601,7.4437,141.0570
51864,55.590782,37.671417,167.699996,2.356155,11,1,-0.233435,-1.774103,9.947909,-7.587786,35.022895,26.137405,4.487953,4.664904,-17.569367,-229.6970,3.1744,141.9979
51964,55.590782,37.671417,167.699996,2.356155,11,1,0.199916,-0.696713,11.148601,-14.916030,35.664119,5.251908,4.682324,6.773397,-17.357385,-231.0566,0.4670,144.3817
52064,55.590782,37.671417,167.699996,2.356155,11,1,-1.990779,-2.059013,11.063607,-24.809160,-37.206104,23.328243,6.568279,4.514225,-17.997231,-233.5731,0.9912,140.0215
52164,55.590782,37.671417,167.699996,2.356155,11,1,0.198719,-1.176750,8.675391,12.656489,-22.351144,5.511450,4.126971,4.558824,-16.041382,-232.3442,1.8749,137.8955
52264,55.590782,37.671417,167.699996,2.356155,11,1,-1.103727,-1.477222,7.375339,-9.206108,-17.404579,-6.030534,4.485523,2.691358,-15.323234,-233.2979,3.4156,136.8854
52387,55.590782,37.671421,167.600006,2.356155,11,1,-1.244985,-1.098939,8.110359,11.755724,2.564885,25.022901,4.956010,3.127310,-15.654168,-231.9466,0.7594,135.2961
52487,55.590782,37.671421,167.600006,2.356155,11,1,-0.271742,-0.905008,9.348161,-3.877862,10.549619,-23.816791,4.980029,4.719851,-16.225631,-232.3039,1.9846,137.5951
52587,55.590782,37.671421,167.600006,2.356155,11,1,-1.477222,-0.867898,10.414778,-1.740458,-18.610687,-48.274810,6.811337,4.319084,-16.615044,-232.4267,6.9424,139.0752
52687,55.590782,37.671421,167.600006,2.356155,11,1,1.399411,-0.776918,11.827357,31.282440,31.816793,-31.129766,4.742599,6.917115,-18.298387,-228.7603,7.4695,143.5278
52787,55.590782,37.671421,167.600006,2.356155,11,1,0.424971,1.203086,7.582437,29.786256,-26.839694,14.442748,4.161688,4.738250,-14.205594,-226.1711,8.1528,140.5321
52887,55.590782,37.671421,167.600006,2.356155,11,1,-0.197522,-0.685939,6.060922,-38.519081,6.076336,-39.877861,3.281773,2.762764,-14.147319,-229.5646,10.6089,143.7647
52987,55.590782,37.671421,167.600006,2.356155,11,1,0.397438,-1.036689,9.502587,-26.061069,12.839695,-6.916030,4.561287,5.158247,-16.448863,-231.9036,10.3025,145.2153
53087,55.590782,37.671421,167.600006,2.356155,11,1,-0.684742,-1.842338,9.777920,9.725192,-12.473283,-11.206108,5.533845,3.979853,-17.087318,-230.9838,11.9540,144.9203
53187,55.590782,37.671421,167.600006,2.356155,11,1,1.482011,-2.221819,11.717224,3.129771,-16.366411,32.229007,4.977695,5.964381,-18.975886,-231.3696,10.4802,141.5466
53287,55.590782,37.671421,167.600006,2.356155,11,1,0.505177,-1.988385,9.459491,-53.114501,-9.251908,6.442748,4.939706,4.787186,-16.616423,-236.8892,10.5545,140.4026
53387,55.590782,37.671421,167.600006,2.356155,11,1,-0.100556,-1.638831,7.289147,29.145036,-6.549618,-10.137405,4.100204,3.008114,-15.280874,-233.9737,11.7614,140.4078
53487,55.590782,37.671421,167.600006,2.356155,11,1,0.107739,-1.152808,6.241684,5.297709,-20.106868,10.595419,3.554388,2.675484,-14.335150,-233.9123,12.0871,138.1103
53587,55.590782,37.671421,167.600006,2.356155,11,1,0.360327,-1.157596,8.804677,-33.572517,-10.091603,6.519084,5.271629,4.388385,-15.458571,-237.5264,12.1547,136.8836
53687,55.590782,37.671421,167.600006,2.356155,11,1,2.892196,-0.555455,11.145009,-7.816794,13.801527,1.938931,4.952330,7.876194,-16.612864,-238.0797,11.2501,137.9681
53787,55.590782,37.671421,167.600006,2.356155,11,1,-1.517924,0.233435,13.733141,-13.297709,-43.511447,34.366413,10.739264,6.132960,-15.972099,-240.5056,10.6338,132.3499
53888,55.590782,37.671421,167.600006,2.356155,11,1,0.318429,-0.642843,10.767923,18.396944,-29.633584,-33.404579,7.509835,4.909457,-15.803518,-238.8247,15.0439,131.3894
53988,55.590782,37.671421,167.600006,2.356155,11,1,0.593762,0.354342,4.815937,-15.282442,5.267175,-28.167938,3.195692,2.940040,-12.000979,-239.8399,17.1813,133.3659
54088,55.590782,37.671421,167.600006,2.356155,11,1,1.424550,-1.223437,10.024523,-6.320610,24.427478,-14.427481,5.868584,5.494595,-16.082504,-239.5948,17.2015,136.3353
54188,55.590782,37.671421,167.600006,2.356155,11,1,-0.344765,-1.224634,9.404425,8.564885,41.725185,28.335876,6.089554,4.408091,-15.598702,-238.0683,12.6458,138.6012
54288,55.590782,37.671421,167.600006,2.356155,11,1,0.402226,-2.782062,13.585898,-13.725191,1.709923,-0.396947,8.004932,6.651593,-18.980289,-239.4035,12.5891,138.7715
54398,55.590782,37.671421,167.600006,2.356155,11,1,4.988319,0.203507,10.709264,27.526718,32.793891,51.389312,2.621794,9.678672,-16.056656,-236.3247,5.8872,139.0050
54498,55.590782,37.671421,167.600006,2.356155,11,1,-0.357933,-1.885434,8.024168,-4.396946,-14.106870,-9.038168,4.620974,3.498358,-15.678476,-236.8337,7.4215,138.3286
54598,55.590782,37.671421,167.600006,2.356155,11,1,-0.678756,-1.165976,7.493851,0.015267,-6.641221,1.740458,4.794895,3.264898,-14.738935,-236.9170,7.6392,137.6719
54699,55.590782,37.671421,167.600006,2.356155,11,1,-0.872686,-0.858321,8.055292,-9.694657,-4.732824,-4.458015,5.469993,3.627059,-14.634656,-237.9170,8.2774,137.5158
54799,55.590782,37.671421,167.600006,2.356155,11,1,1.198298,-0.731429,10.856508,11.175573,-9.664123,12.580152,5.824553,6.481379,-16.432431,-237.0157,7.7248,136.0131
54899,55.590782,37.671421,167.600006,2.356155,11,1,-2.640805,-0.202310,12.480974,-14.396947,-39.557250,-11.114504,10.329527,4.453779,-15.827798,-238.8234,10.8106,133.2752
54999,55.590782,37.671421,167.600006,2.356155,11,1,-0.942118,0.744597,6.607996,-32.732822,-10.564886,-78.885490,5.454056,3.319795,-11.889881,-241.4895,18.1068,136.5125
55099,55.590782,37.671421,167.600006,2.356155,11,1,2.645593,-0.567426,7.815871,-2.824427,4.748092,-6.320610,3.616534,5.645199,-14.650345,-241.5369,18.4356,137.2689
55199,55.590782,37.671421,167.600006,2.356155,11,1,-1.601721,-2.576161,9.682152,-35.877861,-3.450382,-23.648855,7.929663,3.192477,-15.272427,-244.8501,20.6790,138.1372
55299,55.590782,37.671421,167.600006,2.356155,11,1,-0.816423,-1.017536,9.969456,-18.488550,-0.717557,16.244274,7.687578,4.852032,-14.102103,-246.9840,19.2391,137.3299
55399,55.590782,37.671421,167.600006,2.356155,11,1,2.491167,-2.234987,13.195643,-11.450381,3.374046,12.152672,7.608815,8.519135,-17.213157,-248.1865,17.9886,137.1555
55499,55.590782,37.671421,167.600006,2.356155,11,1,5.080496,-1.904587,15.689204,-19.908397,-1.648855,100.610679,7.697392,12.658587,-17.296666,-251.4410,8.7092,133.0639
55599,55.590782,37.671421,167.600006,2.356155,11,1,1.113304,-2.085350,9.753978,-2.534351,-3.648855,44.412212,6.017707,6.224742,-14.882870,-251.9639,4.6151,131.2839
55699,55.590782,37.671421,167.600006,2.356155,11,1,-0.913388,-1.868674,7.474698,9.603054,2.015267,21.999998,5.606300,3.394700,-13.959088,-251.0431,2.4608,130.7928
55799,55.590782,37.671421,167.600006,2.356155,11,1,0.475249,-0.333991,8.250419,-1.526717,0.503817,34.122138,5.595714,5.321413,-12.769312,-251.2414,-0.7827,129.7310
55899,55.590782,37.671421,167.600006,2.356155,11,1,-1.118092,-1.193510,10.740389,-30.412212,-2.748092,5.297709,8.404392,5.543935,-13.888503,-254.2767,-1.1960,129.3003
55999,55.590782,37.671421,167.600006,2.356155,11,1,-0.061052,-1.527501,11.493366,29.374042,11.175573,-57.618316,8.022165,6.640327,-14.904235,-251.3944,4.0474,131.9381
56099,55.590782,37.671421,167.600006,2.356155,11,1,2.472013,1.179144,8.598776,26.854959,2.534351,-17.221374,4.663440,7.387145,-12.069964,-248.6530,5.5987,132.7297
56199,55.590782,37.671421,167.600006,2.356155,11,1,1.279701,-0.403423,10.064027,-16.610687,-2.839694,-4.717557,6.282768,6.966176,-13.690495,-250.3232,6.1415,132.6365
56299,55.590759,37.671440,164.600006,2.356155,11,1,-1.430536,-1.162385,6.743269,-8.122138,6.427480,-45.587787,5.657319,2.806190,-12.804865,-250.9051,10.2176,134.7890
56418,55.590759,37.671440,164.600006,2.356155,11,1,-0.588974,-1.005565,9.545682,-18.320610,-0.916030,5.557252,7.155557,5.335153,-13.386069,-253.1428,9.6284,134.4646
56518,55.590759,37.671440,164.600006,2.356155,11,1,-0.356736,-0.344765,9.555259,-16.946563,-8.061069,18.259542,7.182654,5.706887,-12.525109,-255.0582,8.1146,133.1450
56619,55.590759,37.671440,164.600006,2.356155,11,1,0.120907,-1.860295,12.260707,-8.992367,-9.450382,30.763359,8.811212,7.340996,-14.526032,-256.2121,5.3587,131.4042
56719,55.590759,37.671440,164.600006,2.356155,11,1,-0.152032,-1.626860,9.686941,-9.450382,4.671756,29.877862,7.041680,5.747794,-13.532804,-257.1814,2.3457,131.1447
56819,55.590759,37.671440,164.600006,2.356155,11,1,-0.198719,-1.253365,6.815095,10.229008,6.625954,-17.251909,4.942967,3.950004,-12.638696,-256.1164,3.8808,132.1744
56919,55.590759,37.671440,164.600006,2.356155,11,1,0.967257,-0.944513,7.686584,18.106870,-0.366412,12.167939,4.772651,5.381758,-12.834809,-254.3279,2.7084,131.8461
57019,55.590759,37.671440,164.600006,2.356155,11,1,0.344765,-0.638055,9.148245,-4.244274,-3.816794,12.366412,6.351009,5.893232,-12.831689,-254.7855,1.6208,131.1438
57119,55.590759,37.671440,164.600006,2.356155,11,1,2.179921,-1.244985,13.104663,9.877863,17.709922,-10.229008,7.563460,9.818508,-14.748836,-253.7418,2.1431,133.1220
57219,55.590759,37.671440,164.600006,2.356155,11,1,0.731429,0.253785,13.894750,1.923664,-21.251909,25.374046,9.751401,9.224759,-13.477818,-253.6523,0.3022,130.3694
57319,55.590759,37.671440,164.600006,2.356155,11,1,-2.237381,0.514753,9.199721,1.740458,-21.679388,-16.900762,8.449683,3.798239,-11.827031,-253.4868,2.5341,128.7648
57419,55.590759,37.671440,164.600006,2.356155,11,1,0.356736,0.076614,5.786786,-16.992366,-5.862595,-48.015262,4.215702,3.710241,-11.249562,-255.1505,7.3042,129.5683
57519,55.590759,37.671440,164.600006,2.356155,11,1,1.234211,-0.748188,9.973048,-40.259536,29.435111,12.580152,6.493409,7.192591,-12.571976,-258.8531,5.3339,132.1117
57619,55.590759,37.671440,164.600006,2.356155,11,1,0.672771,-1.112107,9.080011,-19.648853,7.633587,25.175573,6.118519,6.328165,-12.386194,-260.7935,2.7162,132.3751
57719,55.590759,37.671440,164.600006,2.356155,11,1,-1.177947,-2.056619,10.218453,-32.213741,-8.854962,21.740455,8.293572,5.632722,-12.892606,-264.0728,0.7118,131.1518
57819,55.590759,37.671440,164.600006,2.356155,11,1,-0.459687,-1.480814,8.016984,-37.877857,12.549618,2.809160,6.193724,5.014989,-11.585364,-267.8454,0.3028,132.3712
57919,55.590759,37.671440,164.600006,2.356155,11,1,0.142455,-2.229002,8.195353,27.633584,14.305344,-11.312976,5.701051,5.575215,-12.733687,-265.0743,1.3796,133.8432
58019,55.590759,37.671440,164.600006,2.356155,11,1,0.096965,-0.866701,6.477513,11.755724,8.198473,34.595417,4.430369,4.549452,-11.353602,-263.8862,-2.1376,134.3632
58119,55.590759,37.671440,164.600006,2.356155,11,1,-0.401029,-0.283713,8.377312,-25.312976,5.251908,11.862596,6.172981,5.624198,-10.633320,-266.4323,-3.3731,134.7593
58219,55.590759,37.671440,164.600006,2.356155,11,1,0.696713,-1.027112,12.138603,-3.541985,11.282443,-6.793893,7.832366,9.208593,-11.462523,-266.8553,-2.7652,135.9297
58370,55.590759,37.671440,164.600006,2.356155,11,1,0.729034,1.029507,6.490681,37.328243,3.221374,-30.534349,3.978858,5.280998,-9.799065,-261.2544,1.8119,136.6692
58470,55.590759,37.671440,164.600006,2.356155,11,1,1.152808,-0.275333,8.707712,4.748092,-14.641221,-5.480916,5.249575,6.836987,-11.517379,-260.8228,2.5762,135.3047
58570,55.590759,37.671440,164.600006,2.356155,11,1,-2.172738,-1.064223,6.370971,-18.778623,0.335878,-36.412212,5.997399,2.799441,-11.430526,-262.6730,6.1655,135.9192
58670,55.590759,37.671440,164.600006,2.356155,11,1,-1.879448,-1.350330,8.668208,-24.015264,4.564886,-1.160305,7.392959,4.722224,-11.687690,-265.0240,6.2223,136.3895
58770,55.590759,37.671440,164.600006,2.356155,11,1,0.355539,-0.027533,9.607932,1.557252,-7.480916,8.030535,6.505027,7.022150,-10.708620,-264.9572,5.4872,135.5697
58870,55.590759,37.671440,164.600006,2.356155,11,1,0.031125,-1.199495,12.202050,-19.633586,-26.717557,60.503818,8.935338,8.203169,-11.594815,-267.2273,-0.3049,132.3618
58970,55.590759,37.671440,164.600006,2.356155,11,1,-0.427365,-1.443704,9.248802,-25.908395,-5.694656,11.984732,7.157385,5.863151,-11.290753,-269.8148,-1.4744,131.7350
59070,55.590759,37.671440,164.600006,2.356155,11,1,-1.410185,-1.677138,8.343793,-2.839694,0.778626,-9.572520,7.150913,4.525341,-11.481769,-270.1008,-0.5175,131.8160
59170,55.590759,37.671440,164.600006,2.356155,11,1,-0.709881,-0.895431,6.884527,3.541985,12.351144,15.832060,5.488981,4.203716,-10.756547,-269.7578,-2.0985,133.0539
59270,55.590759,37.671440,164.600006,2.356155,11,1,-0.490811,-0.949301,10.933122,-22.503814,7.954198,8.076335,8.224174,7.259260,-10.390884,-272.0372,-2.9095,133.8465
59370,55.590759,37.671440,164.600006,2.356155,11,1,0.446519,-1.079785,10.873268,27.938928,8.732825,-39.083965,7.436224,7.924493,-11.030678,-269.2806,1.0275,134.5812
59470,55.590759,37.671440,164.600006,2.356155,11,1,1.532289,0.797269,11.098322,37.007629,-17.679388,6.549618,7.122492,8.684596,-9.871466,-265.6117,0.3948,132.8049
59570,55.590759,37.671440,164.600006,2.356155,11,1,-0.043096,1.013944,9.089588,-12.763360,-23.251909,-0.458015,6.968693,5.900458,-9.284672,-266.9040,0.6184,130.4900
59670,55.590759,37.671440,164.600006,2.356155,11,1,-1.205481,-0.375890,5.931635,-6.076336,-9.160305,-50.381679,5.346093,2.817525,-10.316176,-267.5186,5.6987,129.8474
59770,55.590759,37.671440,164.600006,2.356155,11,1,-0.125696,-0.226252,8.689756,-29.954196,15.358778,-10.931297,6.611459,5.642962,-9.962981,-270.3561,6.7243,131.4370
59870,55.590759,37.671440,164.600006,2.356155,11,1,-0.879869,-0.389058,10.351331,-35.312976,15.603053,31.068702,8.156760,6.436659,-9.471582,-273.7012,3.6272,133.0275
59970,55.590759,37.671440,164.600006,2.356155,11,1,-1.551443,-2.316390,11.178528,-14.106870,-14.702291,32.763359,9.496850,6.393928,-11.094925,-275.1915,0.2627,131.7693
60070,55.590759,37.671440,164.600006,2.356155,11,1,-0.064643,-0.666785,8.324640,-13.007634,-10.564886,40.305343,6.346146,5.422143,-9.532409,-276.4954,-3.8469,131.0819
60170,55.590759,37.671440,164.600006,2.356155,11,1,-0.768539,-1.216254,9.027338,-7.312978,-0.946565,-11.603053,7.389267,5.380472,-9.916236,-277.2116,-2.7047,130.8561
60270,55.590759,37.671440,164.600006,2.356155,11,1,-0.105345,-1.159991,6.672640,1.160305,5.206107,12.885497,5.118998,4.423581,-10.136186,-277.1276,-3.9177,131.5351
60416,55.590744,37.671459,163.100006,2.356155,12,1,-0.079009,-0.891840,10.928334,-13.007634,11.526718,10.198473,8.050342,7.396219,-8.959273,-279.1537,-5.1864,133.3940
60516,55.590744,37.671459,163.100006,2.356155,12,1,-4.672285,-0.926556,8.795101,16.061069,-4.656488,-60.839691,9.696126,2.439402,-9.529123,-277.4180,0.7460,131.9606
60616,55.590744,37.671459,163.100006,2.356155,12,1,0.985214,1.209072,8.592790,-0.183206,4.778625,-45.618320,5.433032,6.470544,-7.596954,-277.4378,5.3314,131.8455
60716,55.590744,37.671459,163.100006,2.356155,12,1,0.889446,-0.099359,8.131907,9.633587,5.053435,-10.839694,5.338306,6.158739,-9.098608,-276.4408,6.4717,132.2078
60816,55.590744,37.671459,163.100006,2.356155,12,1,-2.019509,-0.991199,6.652289,-13.236640,-6.458015,-7.801526,6.372099,2.945862,-9.627526,-277.8472,7.1744,131.4739
60916,55.590744,37.671459,163.100006,2.356155,12,1,-2.487576,-0.933739,8.695741,-19.099237,1.114504,5.374045,8.121073,4.003426,-8.972047,-279.7340,6.6573,131.6591
61016,55.590744,37.671459,163.100006,2.356155,12,1,-1.015141,-0.684742,10.418369,-16.839694,6.702290,7.679389,8.220540,6.347724,-8.333250,-281.3257,6.0137,132.4549
61116,55.590744,37.671459,163.100006,2.356155,12,1,-0.648829,-1.576582,12.288241,-16.900762,-12.870229,67.389305,9.537256,7.839575,-8.586296,-283.0093,-0.8467,132.5167
61216,55.590744,37.671459,163.100006,2.356155,12,1,-0.399832,-2.155979,9.466674,3.114504,-15.129772,7.938931,7.565610,6.098035,-9.845946,-282.6787,-1.9608,131.2212
61316,55.590744,37.671459,163.100006,2.356155,12,1,-1.168370,-0.441730,6.198588,13.587786,-13.374045,28.473281,5.486098,3.070675,-9.131086,-281.2966,-5.0323,130.5409
61416,55.590744,37.671459,163.100006,2.356155,12,1,-1.833959,-0.244209,7.084443,-6.992366,5.083969,0.732824,6.533982,3.124935,-8.732293,-282.0410,-5.0045,131.0558
61516,55.590744,37.671459,163.100006,2.356155,12,1,0.233435,-1.385046,10.283097,-5.129771,12.427480,-5.068702,7.549734,7.062450,-8.891095,-282.6512,-4.2496,132.1697
61616,55.590744,37.671459,163.100006,2.356155,12,1,-3.111265,-1.292869,10.615891,1.908397,-5.145038,-60.183200,10.111286,4.542480,-8.722034,-282.3251,1.5099,130.3446
61716,55.590744,37.671459,163.100006,2.356155,12,1,0.436942,-0.826000,9.372103,30.106868,5.603054,-60.687019,6.894144,6.385051,-9.165235,-279.3341,7.5584,129.5963
61816,55.590744,37.671459,163.100006,2.356155,12,1,1.555034,-0.612916,9.637860,-3.450382,-2.839694,3.938931,6.363764,7.383206,-8.986329,-279.7079,7.1236,129.3781
61916,55.590744,37.671459,163.100006,2.356155,12,1,-2.066196,-1.431733,6.279991,-8.625955,9.206108,-12.519083,6.265187,2.550067,-9.763047,-280.4834,8.5129,130.0798
62016,55.590744,37.671459,163.100006,2.356155,12,1,-1.551443,-1.069011,8.604762,-8.290077,2.290076,8.351145,7.522242,4.506853,-8.972481,-281.2560,7.7334,130.4612
62116,55.590744,37.671459,163.100006,2.356155,12,1,-0.675165,-1.118092,9.999383,-11.694656,3.160305,8.687024,7.914796,6.147379,-8.684434,-282.3604,6.9431,130.9451
62216,55.590744,37.671459,163.100006,2.356155,12,1,1.064223,-2.333150,13.748703,-32.793891,-24.549617,92.045799,9.894856,9.766708,-8.288024,-285.6918,-2.5737,130.5142
62316,55.590759,37.671440,163.000000,2.356155,12,1,-2.246958,-1.304840,8.775947,-1.572519,-11.572519,43.312976,8.224973,3.922201,-8.949425,-285.8517,-7.0565,130.5716
62425,55.590759,37.671440,163.000000,1.188367,12,1,-0.366313,-1.085770,7.940370,2.427481,-8.809161,27.022899,6.400379,4.731744,-8.802504,-285.5723,-10.1523,130.4515
62525,55.590759,37.671440,163.000000,1.188367,12,1,-1.203086,-1.114501,7.410054,-6.900763,-8.152672,41.053436,6.547582,3.776324,-9.123293,-286.3191,-14.3258,130.7733
62625,55.590759,37.671440,163.000000,1.188367,12,1,-0.713472,-1.628057,11.202470,-27.480916,-12.595420,21.740455,9.332517,6.191257,-8.010148,-288.9145,-16.7662,130.1562
62725,55.590759,37.671440,163.000000,1.188367,12,1,-1.247379,-1.517924,9.689334,18.656486,-4.687023,-25.236639,8.534909,4.894699,-8.836861,-286.6688,-14.5307,128.8388
62825,55.590759,37.671440,163.000000,1.188367,12,1,3.860650,-0.310049,11.267113,35.267169,7.740458,-27.496181,6.525067,9.508945,-6.814652,-283.1299,-11.6746,128.7900
62925,55.590759,37.671440,163.000000,1.188367,12,1,2.785654,0.743400,7.521385,26.885496,18.519083,22.564884,4.001438,6.429977,-7.062996,-280.9199,-13.4514,131.1550
63025,55.590759,37.671440,163.000000,1.188367,12,1,-3.373430,-1.169568,5.713762,-33.038166,5.419847,0.931298,6.575425,1.378562,-10.314927,-284.3552,-13.4402,131.7203
63125,55.590759,37.671440,163.000000,1.188367,12,1,0.615310,-0.044293,8.774749,5.664122,9.770992,28.595418,6.178570,5.863706,-7.611427,-284.1844,-15.9682,133.4225
63225,55.590759,37.671440,163.000000,1.188367,12,1,-1.279701,-0.591368,7.551312,-34.274810,0.503817,14.717556,6.522409,3.852689,-8.532039,-287.7291,-17.3828,133.8485
63325,55.590759,37.671440,163.000000,1.188367,12,1,-1.303643,-2.184709,10.596737,-18.625953,-19.404581,45.038162,9.004925,6.076877,-8.942834,-289.4424,-22.2636,133.3488
63425,55.590759,37.671440,163.000000,1.188367,12,1,0.756568,-2.784456,10.236410,-1.648855,-20.625953,37.145038,7.561188,7.409835,-8.790551,-289.3172,-26.4528,132.5832
63525,55.590759,37.671440,163.000000,1.188367,12,1,0.365116,-1.631648,8.001422,12.137404,-0.015267,42.351142,5.958259,5.491711,-8.730265,-288.7998,-30.4500,134.1464
63625,55.590759,37.671440,163.000000,1.188367,12,1,-0.969652,-0.390255,6.836643,0.671756,10.030535,46.030532,5.879126,3.475163,-8.715172,-290.1629,-34.4842,136.9686
63725,55.590759,37.671440,163.000000,1.188367,12,1,-1.327585,-0.488417,9.244013,-12.748091,8.229008,13.267176,7.929926,4.649706,-8.089295,-292.2824,-35.4460,138.4605
63825,55.590759,37.671440,163.000000,1.188367,12,1,-3.408146,-1.628057,9.447521,13.954199,-13.374045,-46.061065,9.316849,4.056022,-10.323071,-288.7627,-31.6910,134.7976
63925,55.590759,37.671440,163.000000,1.188367,12,1,1.310825,0.289698,9.402030,29.328243,-4.229007,-51.175567,6.688312,6.062464,-6.854809,-284.5664,-26.9814,132.3925
64025,55.590759,37.671440,163.000000,1.188367,12,1,0.909797,1.227028,7.365762,-0.473282,-0.305343,10.854961,5.439282,4.148719,-6.677733,-284.7377,-28.0397,132.6657
64125,55.590759,37.671440,163.000000,1.188367,12,1,-1.970428,-1.477222,6.939594,-28.259540,-9.053436,-5.603054,6.639495,3.162865,-10.175607,-287.0214,-27.7281,131.5122
64225,55.590759,37.671440,163.000000,1.188367,12,1,-1.077391,-0.852336,8.838196,-13.877862,-7.633587,14.977099,7.769028,4.272487,-8.628083,-288.2560,-29.3837,131.1829
64372,55.590759,37.671440,163.000000,1.188367,12,1,-0.679953,-1.592144,11.759122,-31.404579,-14.854961,32.458015,10.204642,5.715471,-7.691731,-292.5464,-34.5989,130.5183
64472,55.590759,37.671440,163.000000,1.188367,12,1,0.715866,-1.996764,11.305421,-6.503817,-5.053435,17.526718,9.110015,6.541981,-7.252796,-293.3384,-36.4114,130.7677
64572,55.590759,37.671440,163.000000,1.188367,12,1,0.119710,-1.371878,8.584411,4.534351,-9.694657,34.427482,7.168677,4.613747,-8.100222,-293.2344,-39.9565,131.3563
64672,55.590759,37.671440,163.000000,1.188367,12,1,0.220267,-2.226608,7.279570,8.809161,-0.793893,22.885494,5.838883,4.832705,-9.064455,-293.0487,-42.0908,132.4390
64772,55.590759,37.671440,163.000000,1.188367,12,1,1.576582,-0.293290,8.146272,-12.748091,-0.396947,14.381679,6.183308,4.396649,-6.434772,-294.7991,-43.4297,133.1485
64872,55.590759,37.671440,163.000000,1.188367,12,1,1.301249,-0.022745,11.203667,16.458015,-1.557252,14.564885,8.956178,5.506801,-5.722787,-293.5978,-44.8172,133.7951
64972,55.590759,37.671440,163.000000,1.188367,12,1,-3.375824,-0.738611,10.025720,16.503816,-27.404579,-41.221370,10.220693,2.780649,-10.318719,-287.8125,-42.1368,127.9286
65072,55.590759,37.671440,163.000000,1.188367,12,1,1.474828,0.820014,7.911640,-0.305343,12.992367,-46.732826,6.231367,3.857108,-6.381103,-287.6687,-37.2901,127.6688
65172,55.590759,37.671440,163.000000,1.188367,12,1,2.082955,0.545878,9.463083,-13.145038,11.129771,14.549619,7.153963,4.996037,-5.558467,-290.1271,-38.3386,129.5569
65272,55.590759,37.671440,163.000000,1.188367,12,1,-1.920150,-0.851139,6.637924,-18.198472,-3.496183,-16.717557,6.644791,2.074087,-9.671128,-291.2324,-36.8893,128.4049
65372,55.590759,37.671440,163.000000,1.188367,12,1,-0.181959,-0.505177,9.095573,-27.129768,1.618321,19.465646,7.957025,3.679152,-7.323233,-294.5877,-38.6451,129.4750
65472,55.590759,37.671440,163.000000,1.188367,12,1,-0.253785,-0.652420,10.879253,-6.458015,-2.961832,15.847329,9.563859,4.308531,-6.837243,-295.5454,-40.2094,129.9744
65572,55.590759,37.671440,163.000000,1.188367,12,1,0.439336,-1.086968,12.010513,-38.061065,-12.366412,49.419841,10.394222,4.723774,-5.898575,-300.2098,-45.2015,131.3039
65672,55.590759,37.671440,163.000000,1.188367,12,1,-0.960075,-2.436100,11.508928,-7.068702,-29.618320,61.114501,10.702718,4.690935,-8.145712,-301.4358,-51.9732,132.0355
65772,55.590759,37.671440,163.000000,1.188367,12,1,-1.335965,-1.223437,6.196194,-6.152672,-5.496183,-9.190840,6.143022,1.964668,-9.527770,-300.8385,-51.4757,130.4962
65872,55.590759,37.671440,163.000000,1.188367,12,1,1.059434,-0.314838,8.987833,2.717557,9.801527,21.206106,7.684973,3.109745,-6.163391,-302.9892,-52.7941,133.5927
65972,55.590759,37.671440,163.000000,1.188367,12,1,-0.156820,-1.267730,9.533712,2.763359,-66.564880,-39.755722,9.046071,2.972123,-8.443388,-292.5076,-53.0838,120.7795
66072,55.590759,37.671440,163.000000,1.188367,12,1,1.419762,-0.149638,11.277888,1.648855,31.679389,-23.114503,9.978379,3.603883,-5.723409,-295.0605,-49.7357,124.1788
66172,55.590759,37.671440,163.000000,1.188367,12,1,2.985569,0.381875,10.903195,30.458017,23.206104,-3.267176,8.779816,4.605297,-4.361911,-294.3333,-48.4568,127.2172
66272,55.590759,37.671440,163.000000,1.188367,12,1,-1.435324,0.476446,6.631939,17.312976,-6.854961,-27.877861,6.676139,0.954275,-8.918789,-290.6007,-46.1991,124.5433
66416,55.590736,37.671421,161.699996,1.188367,11,1,0.126893,0.228646,7.368156,-35.648853,7.236642,-2.732824,6.670794,1.834375,-7.258380,-296.6069,-45.4641,125.7525
66516,55.590736,37.671421,161.699996,1.188367,11,1,-0.878672,-1.001973,9.411607,-22.427480,-1.267176,-3.175572,8.976573,2.461314,-7.878587,-298.5899,-45.2369,125.3882
66616,55.590736,37.671421,161.699996,1.188367,11,1,0.994791,-0.723049,11.294647,0.045802,-4.458015,21.969465,9.955727,3.691572,-5.764713,-299.2507,-47.3793,126.3253
66716,55.590736,37.671421,161.699996,1.188367,11,1,2.236184,-0.913388,12.658144,-33.358779,-4.030534,61.755718,10.806552,4.009163,-4.043972,-305.4836,-52.9644,130.2623
66816,55.590736,37.671421,161.699996,1.188367,11,1,1.847127,-1.231817,9.740810,-13.251909,8.000000,64.748085,8.224027,3.320594,-5.207556,-312.6534,-57.7723,137.5839
66916,55.590736,37.671421,161.699996,1.188367,11,1,-2.536657,-2.624045,7.972692,-18.305343,8.870228,26.900762,8.336536,2.717729,-9.819855,-318.4100,-59.1498,142.2250
67016,55.590736,37.671421,161.699996,1.188367,11,1,0.464475,0.208296,7.625533,12.854961,10.091603,42.122135,6.742436,1.114363,-6.385300,-323.5203,-61.1910,149.6749
67116,55.590736,37.671421,161.699996,1.188367,11,1,-1.306037,-1.009156,9.478645,-26.473279,-2.793893,36.091598,9.164663,1.800615,-7.496764,-331.1424,-63.5615,155.3523
67216,55.590736,37.671421,161.699996,1.188367,11,1,-1.034295,-0.445322,11.373656,16.335878,-10.366412,-17.435113,10.855304,1.745822,-6.685336,-325.4316,-63.6279,150.7990
67316,55.590736,37.671421,161.699996,1.188367,11,1,1.176750,-0.468066,12.119449,17.511447,2.152672,-16.656488,10.641352,2.740772,-4.540279,-321.1604,-62.5056,147.9862
67416,55.590736,37.671421,161.699996,1.188367,11,1,0.671574,0.555455,7.206547,12.244276,-6.152672,-8.473282,6.422707,0.967254,-6.565181,-317.9265,-62.4534,145.7208
67516,55.590736,37.671421,161.699996,1.188367,11,1,-1.228225,-1.052252,5.499481,4.732824,39.328243,-23.465646,5.387557,1.786732,-9.005473,-319.1662,-57.9617,147.6528
67616,55.590736,37.671421,161.699996,1.188367,11,1,0.210690,0.544681,8.975863,-0.152672,2.809160,-10.244275,7.919452,1.445020,-5.793997,-318.2364,-57.0794,146.5379
67716,55.590736,37.671421,161.699996,1.188367,11,1,-0.776918,0.409408,9.354146,-18.671752,15.984732,14.625956,8.604935,1.157308,-6.216804,-323.4330,-56.8612,150.5043
67816,55.590736,37.671421,161.699996,1.188367,11,1,-1.265336,-0.894234,10.468647,-45.206108,-27.374044,33.328243,10.004182,1.628288,-6.763901,-329.5558,-61.0454,152.4176
67916,55.590736,37.671421,161.699996,1.188367,11,1,-0.665588,-1.849521,8.506599,-17.954198,-7.267175,41.526714,8.030898,2.286816,-7.256923,-337.1564,-63.7761,159.0522
68016,55.590736,37.671421,161.699996,1.188367,11,1,0.068235,-1.635240,7.497443,14.305344,-20.641220,-30.748090,6.923604,2.235024,-7.365606,-328.3464,-64.4846,150.8260
68116,55.590736,37.671421,161.699996,1.188367,11,1,1.814805,-0.477643,7.019799,28.244272,-5.374045,17.832059,5.828303,1.707976,-5.817547,-328.1114,-65.8778,153.6952
68216,55.590736,37.671421,161.699996,1.188367,11,1,-0.025139,-0.612916,11.370064,-26.274808,7.419847,-15.312977,10.528695,1.594260,-5.774335,-328.7106,-64.4389,151.4729
68367,55.590736,37.671421,161.699996,1.188367,11,1,-1.734599,-1.121683,11.079169,29.068700,-13.160305,-53.725185,11.011191,2.058089,-8.568530,-307.6687,-61.9238,133.0137
68467,55.590736,37.671421,161.699996,1.188367,11,1,1.193510,0.794875,7.766790,59.374050,-12.549618,-33.709922,7.098386,1.558527,-6.714203,-296.0071,-60.0223,126.5261
68567,55.590736,37.671421,161.699996,1.188367,11,1,1.065420,0.497994,7.153875,-5.908396,-6.198473,-14.977099,6.553957,1.563229,-7.130269,-294.4937,-58.9481,124.0968
68667,55.590736,37.671421,161.699996,1.188367,11,1,-0.435745,-0.404620,6.630742,-27.832059,-9.022900,-47.511451,6.482058,1.227092,-8.913619,-292.6416,-54.9986,118.6862
68767,55.590736,37.671421,161.699996,1.188367,11,1,-0.555455,-0.852336,8.763976,-40.076335,9.083969,0.946565,8.574724,1.458998,-8.327556,-297.8986,-54.7362,120.2114
68867,55.590736,37.671421,161.699996,1.188367,11,1,0.311246,-0.011971,9.801862,-7.740458,-7.496183,31.206104,9.319294,1.094740,-6.956067,-299.8007,-57.8449,121.5930
68967,55.590736,37.671421,161.699996,1.188367,11,1,0.531513,-0.207098,12.773067,-32.503814,-35.175567,77.358779,12.334574,0.608339,-6.495330,-304.3113,-66.3060,123.0815
69067,55.590736,37.671421,161.699996,1.188367,11,1,1.638831,-1.238999,10.545262,-34.305343,-7.465649,33.603054,10.047700,1.193208,-6.195084,-310.6529,-69.5024,126.2606
69167,55.590736,37.671421,161.699996,1.188367,11,1,-0.264559,-0.052672,8.822633,-7.816794,11.312976,11.832060,8.598674,-0.471269,-7.869555,-315.7924,-69.6630,130.9129
69267,55.590736,37.671421,161.699996,1.188367,11,1,-2.671929,-1.748964,8.092402,-5.206107,20.167938,6.534351,8.658859,0.603978,-10.393516,-321.3707,-68.6730,136.3069
69367,55.590736,37.671421,161.699996,1.188367,11,1,-0.879869,-0.427365,8.950723,-12.152672,13.618320,-9.511451,8.796894,-0.411939,-7.931224,-322.8604,-67.0153,136.6015
69467,55.590736,37.671421,161.699996,1.188367,11,1,0.090980,0.192733,11.505336,3.297710,9.755725,-5.877862,10.805595,-0.796380,-5.930690,-322.8146,-65.8827,136.9099
69567,55.590736,37.671421,161.699996,1.188367,11,1,-0.240617,1.088165,12.093113,-2.229007,-29.038166,44.213741,11.522498,-1.972479,-6.516247,-326.9853,-70.8684,141.2353
69667,55.590736,37.671421,161.699996,1.188367,11,1,-0.089783,-0.323217,9.539697,-23.969463,-11.206108,-61.374042,9.247040,-0.857180,-7.598520,-312.7867,-68.4641,123.6696
69767,55.590736,37.671421,161.699996,1.188367,11,1,0.966060,-0.708684,7.449559,-7.038168,-0.625954,-37.129772,7.123528,0.026088,-7.319463,-306.9831,-65.7817,116.6737
69867,55.590736,37.671421,161.699996,1.188367,11,1,-0.667982,-0.865504,8.566454,-16.167938,11.435115,-4.793893,8.478104,-0.745916,-8.342138,-309.9895,-64.7109,118.1975
69967,55.590736,37.671421,161.699996,1.188367,11,1,-1.369483,-0.663194,8.967483,-15.267175,-5.664122,13.129771,8.919424,-1.474492,-8.806242,-312.3837,-66.0808,119.1568
70067,55.590736,37.671421,161.699996,1.188367,11,1,-1.013944,-1.699883,10.072407,-17.282442,-4.793893,2.015267,10.136231,-0.904892,-8.461639,-313.6198,-66.5528,118.6185
70167,55.590736,37.671421,161.699996,1.188367,11,1,3.144784,-0.855927,13.184869,-20.809158,-24.274806,66.244277,12.097974,-1.827802,-3.910785,-322.1858,-73.0231,125.6872
70267,55.590736,37.671421,161.699996,1.188367,11,1,1.156399,-3.371036,8.076840,7.312978,-10.687023,18.610687,8.403810,1.423835,-7.507705,-324.1241,-75.0084,128.4785
70410,55.590724,37.671440,163.300003,1.188367,11,1,-0.032322,-1.608903,7.076063,23.435113,5.984733,9.053436,7.143300,0.205996,-8.545259,-326.5631,-75.0737,134.4728
70510,55.590724,37.671440,163.300003,1.188367,11,1,0.404620,-1.138443,8.201338,-0.625954,16.641220,21.328245,7.973021,-0.360753,-7.565556,-336.7423,-74.8602,144.9426
70610,55.590724,37.671440,163.300003,1.188367,11,1,0.608127,-0.535104,10.670957,-5.297709,-2.076336,21.160305,10.145688,-1.497786,-6.749341,-344.1542,-75.8865,152.0723
70710,55.590724,37.671440,163.300003,1.188367,11,1,-3.606865,0.063446,12.254722,-23.389310,-22.091600,-0.503817,12.272123,-3.380680,-10.882615,-343.9013,-77.9980,149.3997
70810,55.590724,37.671440,163.300003,1.188367,11,1,0.335188,0.160412,9.273941,-4.519084,-3.572519,-83.923667,8.794501,-2.450026,-8.133869,-305.9592,-76.0141,110.1477
70910,55.590724,37.671440,163.300003,1.188367,11,1,2.706645,0.623690,8.135498,14.442748,-4.702290,7.954198,7.465625,-1.923165,-6.003084,-304.8621,-76.9340,110.5054
71010,55.590724,37.671440,163.300003,1.188367,11,1,0.099359,-0.001197,6.676231,-35.068702,7.374045,-25.450382,6.303348,-1.898397,-8.690485,-304.7078,-74.4242,106.7469
71110,55.590724,37.671440,163.300003,1.188367,11,1,0.544681,-1.420959,10.709264,13.389313,8.000000,24.519081,10.549266,-1.369111,-7.846378,-310.7366,-75.9844,114.3956
71211,55.590724,37.671440,163.300003,1.188367,11,1,-0.697910,0.442927,7.674613,-25.526718,-7.877862,36.229003,7.138828,-2.898438,-9.338532,-320.4657,-79.2762,121.7659
71311,55.590724,37.671440,163.300003,1.188367,11,1,1.665167,-1.066617,12.631809,-38.229003,-24.946565,22.977098,11.919727,-3.603564,-6.907084,-325.2609,-82.6628,122.7555
71411,55.590724,37.671440,163.300003,1.188367,11,1,-0.767342,-2.806004,8.689756,3.694656,5.053435,8.244276,9.136828,-0.700134,-9.756546,-332.3893,-82.7173,130.3152
71511,55.590724,37.671440,163.300003,1.188367,11,1,-0.422577,-1.646014,8.001422,7.603053,-1.267176,5.282443,8.055286,-1.373557,-9.437328,-334.8322,-83.0744,133.5445
71611,55.590724,37.671440,163.300003,1.188367,11,1,-0.332794,-0.764947,6.726510,15.541984,4.809160,29.190837,6.592058,-1.530350,-9.426346,-356.7122,-83.8805,157.1509
71711,55.590724,37.671440,163.300003,1.188367,11,1,-1.187524,-1.432930,8.887277,2.458015,9.282444,-0.152672,8.934281,-1.617370,-9.906299,-356.8208,-82.9529,157.5074
71811,55.590724,37.671440,163.300003,1.188367,11,1,1.064223,-0.622492,12.101493,-14.198472,12.534352,15.618320,11.273268,-3.637740,-7.041424,-371.4178,-81.7881,170.7848
71911,55.590724,37.671440,163.300003,1.188367,11,1,-1.648408,0.675165,12.060791,-9.862595,0.595420,20.748090,11.104425,-5.032449,-9.851180,-386.4148,-81.3190,184.9407
72011,55.590724,37.671440,163.300003,1.188367,11,1,-1.837550,0.893037,8.046913,-20.152671,-0.885496,-63.648853,7.114915,-4.156303,-10.821556,-351.3534,-84.2298,147.4344
72111,55.590724,37.671440,163.300003,1.188367,11,1,1.859098,-0.240617,9.288306,12.885497,-9.511451,-21.251909,8.545172,-3.206987,-7.260666,-327.8580,-84.8506,125.1144
72211,55.590724,37.671440,163.300003,1.188367,11,1,-0.523133,-0.134075,6.350620,-20.213741,12.854961,-26.625953,5.829404,-2.576534,-9.767361,-312.4508,-82.3456,107.6153
72311,55.590702,37.671497,164.500000,1.188367,13,1,-1.467646,-0.870292,9.397242,-6.839694,4.412214,-8.656489,8.896829,-3.417075,-10.430816,-311.2097,-81.4091,105.6729
72432,55.590702,37.671497,164.500000,1.188367,13,1,0.116119,-0.815226,11.836934,-19.206106,-17.083969,26.351142,10.836494,-4.766756,-9.006954,-317.1445,-85.1697,109.3247
72532,55.590702,37.671497,164.500000,1.188367,13,1,2.144008,-1.819593,12.058398,-8.305344,-11.740458,6.610687,11.414452,-4.047683,-7.229985,-314.2603,-86.4799,105.5967
72632,55.590702,37.671497,164.500000,1.188367,13,1,3.722984,-1.367089,9.396045,14.641221,-1.389313,35.206108,8.937498,-3.032456,-5.941350,-351.1224,-89.0983,143.9954
72732,55.590702,37.671497,164.500000,1.188367,13,1,-1.611298,-2.270900,8.243237,-4.213740,2.244275,32.916030,8.342059,-1.793062,-11.509357,-560.3722,-89.3845,352.8496
72832,55.590702,37.671497,164.500000,1.188367,13,1,-0.179565,-0.648829,7.888895,14.061070,6.885496,22.977098,7.365160,-2.891085,-10.096362,-380.7697,-90.8299,174.6430
72932,55.590702,37.671497,164.500000,1.188367,13,1,-0.901417,-1.375469,10.062830,-6.717557,28.061067,-14.549619,9.582313,-3.297523,-10.933874,-544.0576,-88.7221,337.2762
73032,55.590702,37.671497,164.500000,1.188367,13,1,1.508347,-0.323217,11.699267,22.381677,13.038168,-7.648855,10.778031,-4.563608,-8.303334,-580.1570,-89.9685,375.6233
73132,55.590702,37.671497,164.500000,1.188367,13,1,1.714248,0.954089,11.136630,-4.625954,-24.778623,5.297709,9.728740,-5.590239,-8.401549,3061.9429,-88.4164,-3266.9398
73232,55.590702,37.671497,164.500000,1.188367,13,1,0.270545,0.831985,7.893683,6.564885,-21.114501,5.618320,6.849636,-4.013239,-10.034745,3080.3202,-86.2871,-3284.6673
73332,55.590702,37.671497,164.500000,1.188367,13,1,-0.140061,0.065841,5.840655,2.152672,-1.801527,-26.717557,5.292384,-2.438993,-10.229954,3040.9623,-87.0459,-3245.0109
73432,55.590702,37.671497,164.500000,1.188367,13,1,-0.805649,-0.183156,7.943961,-22.610687,6.320610,-44.717555,7.201300,-3.390572,-10.465762,2952.7901,-86.1848,-3158.9855
73532,55.590702,37.671497,164.500000,1.188367,13,1,-1.869871,-1.186327,8.819043,-16.931297,17.603054,-13.603053,8.380749,-3.229640,-11.225025,2931.9175,-84.3646,-3139.7634
73632,55.590702,37.671497,164.500000,1.188367,13,1,-1.060631,-1.218649,10.840946,-24.320608,4.748092,12.366412,10.004079,-4.461803,-10.189897,2917.9680,-85.0451,-3128.1900
73732,55.590702,37.671497,164.500000,1.188367,13,1,-0.511162,-2.393005,10.307039,-16.778625,-1.511450,5.938931,10.023448,-3.427528,-9.733417,2911.9622,-85.5296,-3123.8459
73832,55.590702,37.671497,164.500000,1.188367,13,1,1.843535,-1.741782,7.988254,14.732824,10.213740,-1.419847,7.666147,-2.367346,-7.383742,2908.0606,-84.5879,-3118.4546
73932,55.590702,37.671497,164.500000,1.188367,13,1,-0.609324,-1.385046,7.186196,0.259542,0.091603,34.671756,6.928489,-2.431212,-9.934259,2875.7464,-86.2108,-3085.9696
74032,55.590702,37.671497,164.500000,1.188367,13,1,-0.381875,-1.227028,8.182185,-7.129770,6.717557,4.595420,7.653977,-3.153576,-9.539860,2868.8663,-85.5068,-3079.7890
74132,55.590702,37.671497,164.500000,1.188367,13,1,1.052252,-1.006762,11.428722,7.419847,15.801527,35.633586,10.229712,-4.916299,-7.826880,2828.9987,-83.2683,-3039.0542
74232,55.590702,37.671497,164.500000,1.188367,13,1,-1.719037,0.539892,12.029667,-0.549618,-9.358779,6.167939,10.282492,-6.408278,-10.885436,2819.4932,-83.3779,-3029.5381
74332,55.590682,37.671554,165.000000,1.188367,13,1,-3.236961,-0.312443,9.408016,0.488550,-8.305344,-28.778625,8.480688,-4.356985,-12.666879,2825.5193,-86.2918,-3035.5555
74447,55.590682,37.671554,165.000000,1.188367,13,1,-0.250194,-0.453701,7.113173,21.435113,0.305343,-34.778625,6.513318,-2.899183,-9.999256,2864.2777,-89.5267,-3071.9249
74547,55.590682,37.671554,165.000000,1.188367,13,1,-1.309628,-0.331597,7.788338,-11.374045,13.480916,-29.648853,7.000576,-3.475206,-10.989093,3252.8177,-89.0324,-3461.6156
74647,55.590682,37.671554,165.000000,1.188367,13,1,-1.073799,-0.627281,8.483854,3.557252,-2.503817,-11.709924,7.750931,-3.507414,-10.875956,3324.0695,-89.0168,-3532.5218
74747,55.590682,37.671554,165.000000,1.188367,13,1,-0.331597,-0.440533,11.337742,-14.412213,12.809160,35.954196,10.026662,-5.259213,-10.616069,3226.7450,-92.4606,-3436.6244
74847,55.590682,37.671554,165.000000,1.188367,13,1,1.244985,-1.343147,12.921507,-18.351142,-0.015267,21.954196,11.708306,-5.693176,-8.899630,3274.6462,-91.9587,-3486.4066
74947,55.590682,37.671554,165.000000,1.188367,13,1,0.671574,-2.140416,10.534488,-22.106870,13.129771,48.396942,9.868462,-4.098524,-8.456318,3410.6817,-93.6300,-3624.7337
75047,55.590682,37.671554,165.000000,1.188367,13,1,-4.085705,-1.886631,6.466739,7.923664,8.137405,-8.656489,6.661050,-2.159104,-13.417710,3427.0162,-94.2928,-3640.3070
