# Инициализация MPU6050...
# MPU6050 OK
# Держите неподвижно. Калибровка гиро... 5 сек
# Держите неподвижно... 4 сек
# Держите неподвижно... 3 сек
# Держите неподвижно... 2 сек
# Держите неподвижно... 1 сек
# Держите неподвижно... 0 сек
# Калибровка гиро завершена.
# DMP готов. Начинайте движение.
# Ожидание фиксации ГНСС...
time_ms,lat,lon,gnss_speed_mps,gnss_vn_mps,gnss_ve_mps,ax,ay,az,gx,gy,gz,roll_deg,pitch_deg,yaw_deg
62688,55.591365,37.673133,1.178078,-0.814062,0.851569,-3.865439,-0.276530,8.207324,-0.030534,0.015267,-0.030534,-8.987957,-24.223249,133.710006
62788,55.591365,37.673133,1.178078,-0.814062,0.851569,-3.961207,0.043096,8.324640,-0.061069,-0.015267,-0.030534,-8.996729,-24.228576,133.706954
62888,55.591365,37.673133,1.178078,-0.814062,0.851569,-3.873818,-0.207098,8.413226,-0.076336,-0.015267,-0.030534,-9.050942,-24.178180,133.703903
62988,55.591365,37.673133,1.178078,-0.814062,0.851569,-3.829526,-0.193930,8.455123,-0.061069,-0.030534,-0.030534,-9.095920,-24.077142,133.700851
63088,55.591365,37.673133,1.178078,-0.814062,0.851569,-3.670311,-0.345962,8.333020,-0.091603,-0.045802,-0.030534,-9.167991,-23.941232,133.697799
63188,55.591365,37.673133,1.178078,-0.814062,0.851569,-3.490746,-0.231040,8.467095,-0.061069,-0.015267,-0.030534,-9.138996,-23.755004,133.694747
63288,55.591365,37.673133,1.178078,-0.814062,0.851569,-3.266888,-0.305261,8.459912,-0.061069,-0.015267,-0.030534,-9.251130,-23.475858,133.691696
63388,55.591365,37.673133,1.178078,-0.814062,0.851569,-3.372233,-0.521936,8.553286,-0.061069,-0.015267,-0.015267,-9.293708,-23.164886,133.690170
63488,55.591365,37.673133,1.178078,-0.814062,0.851569,-3.513491,-0.293290,8.874109,-0.091603,-0.045802,-0.015267,-9.334070,-22.927328,133.688644
63588,55.591365,37.673133,1.178078,-0.814062,0.851569,-3.414132,-0.447716,8.492234,-0.076336,-0.015267,-0.015267,-9.366681,-22.887252,133.687118
63688,55.591365,37.673133,1.178078,-0.814062,0.851569,-3.621230,-0.283713,8.316260,-0.076336,0.000000,-0.015267,-9.375054,-22.994522,133.685592
63788,55.591365,37.673133,1.178078,-0.814062,0.851569,-3.598485,-0.405817,8.576031,-0.061069,0.000000,-0.030534,-9.443212,-23.009838,133.682540
63888,55.591365,37.673133,1.178078,-0.814062,0.851569,-3.818752,-0.272939,8.504205,-0.091603,-0.045802,-0.015267,-9.518771,-23.011693,133.681015
63988,55.591365,37.673133,1.178078,-0.814062,0.851569,-3.598485,-0.311246,8.362947,-0.076336,-0.030534,-0.030534,-9.527562,-22.969688,133.677963
64088,55.591365,37.673133,1.178078,-0.814062,0.851569,-3.609259,-0.331597,8.441956,-0.076336,-0.030534,-0.030534,-9.602001,-22.823038,133.674911
64188,55.591365,37.673133,1.178078,-0.814062,0.851569,-3.655946,-0.411803,8.693346,-0.061069,0.000000,-0.015267,-9.689799,-22.696313,133.673385
64288,55.591365,37.673133,1.178078,-0.814062,0.851569,-3.646369,-0.430956,8.353370,-0.061069,-0.015267,-0.015267,-9.664211,-22.694353,133.671859
64388,55.591365,37.673133,1.178078,-0.814062,0.851569,-3.560178,-0.387861,8.310275,-0.076336,-0.045802,0.000000,-9.648380,-22.694169,133.671859
64488,55.591365,37.673133,1.178078,-0.814062,0.851569,-3.604471,-0.393846,8.398860,-0.061069,-0.015267,-0.015267,-9.640509,-22.762678,133.670333
64683,55.591365,37.673133,1.178078,-0.814062,0.851569,-3.626019,-0.184354,8.586805,-0.061069,-0.030534,-0.015267,-9.553865,-22.662788,133.667358
64783,55.591365,37.673133,1.178078,-0.814062,0.851569,-3.556587,-0.574608,8.577228,-0.061069,0.000000,0.000000,-9.613214,-22.629604,133.667358
64883,55.591365,37.673133,1.178078,-0.814062,0.851569,-3.464410,-0.336385,8.378509,-0.076336,-0.045802,-0.015267,-9.582896,-22.552705,133.665832
64983,55.591365,37.673133,1.178078,-0.814062,0.851569,-3.608062,-0.301669,8.542512,-0.061069,-0.015267,-0.015267,-9.520760,-22.447549,133.664306
65083,55.591365,37.673133,1.178078,-0.814062,0.851569,-3.568558,-0.257377,8.792706,-0.045802,0.000000,-0.015267,-9.394983,-22.337892,133.662780
65183,55.591365,37.673133,1.178078,-0.814062,0.851569,-3.523068,0.028730,8.720880,-0.061069,0.015267,-0.015267,-9.335070,-22.257377,133.661254
65283,55.591365,37.673133,1.178078,-0.814062,0.851569,-3.541024,-0.187945,8.613142,-0.076336,0.015267,-0.015267,-9.414830,-22.337081,133.659729
65383,55.591365,37.673133,1.178078,-0.814062,0.851569,-3.604471,-0.257377,8.455123,-0.030534,0.030534,-0.030534,-9.488476,-22.454877,133.656677
65483,55.591365,37.673133,1.178078,-0.814062,0.851569,-3.518279,-0.355539,8.297106,-0.076336,-0.045802,-0.015267,-9.458083,-22.405309,133.655151
65583,55.591365,37.673133,1.178078,-0.814062,0.851569,-3.658340,-0.252588,8.678981,-0.061069,-0.045802,-0.015267,-9.345006,-22.228704,133.653625
65683,55.591365,37.673133,1.178078,-0.814062,0.851569,-3.369839,-0.126893,8.588002,-0.091603,-0.030534,-0.015267,-9.418427,-21.943519,133.652099
65783,55.591365,37.673133,1.178078,-0.814062,0.851569,-3.377022,-0.630872,8.483854,-0.076336,0.030534,-0.015267,-9.645187,-21.997049,133.650573
65883,55.591365,37.673133,1.178078,-0.814062,0.851569,-3.429694,-0.323217,8.626309,-0.061069,-0.015267,0.000000,-9.712634,-22.099294,133.650573
65983,55.591365,37.673133,1.178078,-0.814062,0.851569,-3.451242,-0.336385,8.662222,-0.045802,0.015267,-0.015267,-9.677920,-22.150337,133.649047
66083,55.591365,37.673133,1.178078,-0.814062,0.851569,-3.397372,-0.418985,8.668208,-0.091603,-0.076336,0.000000,-9.688981,-21.922927,133.649047
66183,55.591365,37.673133,1.178078,-0.814062,0.851569,-3.256114,-0.502782,8.142681,-0.076336,-0.030534,-0.015267,-9.734850,-21.777572,133.647521
66283,55.591365,37.673133,1.178078,-0.814062,0.851569,-3.391387,-0.304064,8.863335,-0.061069,0.015267,0.000000,-9.796482,-21.634529,133.647521
66383,55.591365,37.673133,1.178078,-0.814062,0.851569,-3.429694,-0.557849,8.853758,-0.045802,0.015267,0.000000,-9.787452,-21.665788,133.647521
66483,55.591365,37.673133,1.178078,-0.814062,0.851569,-3.265691,-0.323217,8.851365,-0.030534,0.030534,0.000000,-9.701080,-21.720485,133.647521
66583,55.591365,37.673133,1.178078,-0.814062,0.851569,nan,nan,nan,nan,nan,nan,nan,nan,133.647521
66686,55.591304,37.673225,2.155522,-1.642488,1.395891,-3.221398,-0.104148,8.112753,-0.091603,-0.045802,-0.015267,-9.491866,-21.809606,133.644424
66786,55.591304,37.673225,2.155522,-1.642488,1.395891,-3.284845,-0.282516,8.595185,-0.106870,-0.091603,0.000000,-9.480778,-21.641347,133.644424
66886,55.591304,37.673225,2.155522,-1.642488,1.395891,-3.177106,-0.414197,8.377312,-0.076336,-0.015267,-0.015267,-9.489663,-21.500501,133.642898
66987,55.591304,37.673225,2.155522,-1.642488,1.395891,-3.341109,-0.427365,8.552089,-0.061069,-0.015267,0.000000,-9.464293,-21.440690,133.642898
67087,55.591304,37.673225,2.155522,-1.642488,1.395891,-3.143587,-0.317232,8.995017,-0.061069,-0.015267,-0.015267,-9.404707,-21.193740,133.641372
67187,55.591304,37.673225,2.155522,-1.642488,1.395891,-3.088520,-0.148441,8.887277,-0.091603,-0.030534,-0.015267,-9.384895,-21.030076,133.639846
67287,55.591304,37.673225,2.155522,-1.642488,1.395891,-3.083732,-0.318429,8.678981,-0.030534,0.030534,-0.015267,-9.416948,-20.904609,133.638320
67387,55.591304,37.673225,2.155522,-1.642488,1.395891,-3.096900,-0.181959,8.650251,-0.045802,0.030534,-0.015267,-9.418045,-20.866584,133.636795
67487,55.591304,37.673225,2.155522,-1.642488,1.395891,-3.221398,-0.179565,8.626309,-0.061069,-0.015267,0.000000,-9.396767,-20.789804,133.636795
67587,55.591304,37.673225,2.155522,-1.642488,1.395891,-3.075352,-0.169988,8.531738,-0.076336,-0.030534,0.000000,-9.434052,-20.648496,133.636795
67687,55.591304,37.673225,2.155522,-1.642488,1.395891,-3.141193,-0.101754,8.449138,-0.076336,-0.015267,-0.015267,-9.531347,-20.527910,133.635269
67787,55.591304,37.673225,2.155522,-1.642488,1.395891,-3.215413,-0.559046,8.845378,-0.045802,0.015267,-0.015267,-9.587478,-20.422197,133.633743
67887,55.591304,37.673225,2.155522,-1.642488,1.395891,-3.178303,-0.216675,8.550891,-0.091603,-0.015267,-0.015267,-9.609346,-20.395380,133.632217
67987,55.591304,37.673225,2.155522,-1.642488,1.395891,-3.167529,-0.371101,8.625112,-0.045802,0.045802,-0.015267,-9.636878,-20.458938,133.630691
68087,55.591304,37.673225,2.155522,-1.642488,1.395891,-3.271677,-0.108936,8.779538,-0.076336,-0.015267,-0.015267,-9.631289,-20.480810,133.629165
68187,55.591304,37.673225,2.155522,-1.642488,1.395891,-3.325546,-0.440533,8.783129,-0.076336,-0.030534,-0.015267,-9.756928,-20.468992,133.627639
68287,55.591304,37.673225,2.155522,-1.642488,1.395891,-3.277662,-0.355539,8.900445,-0.045802,0.015267,-0.015267,-9.695711,-20.424932,133.626113
68387,55.591304,37.673225,2.155522,-1.642488,1.395891,-3.209427,-0.313640,8.840590,-0.061069,0.015267,-0.015267,-9.702090,-20.382905,133.624588
68487,55.591304,37.673225,2.155522,-1.642488,1.395891,-3.149572,-0.385467,8.540118,-0.045802,0.015267,-0.015267,-9.669954,-20.435871,133.623062
68676,55.591304,37.673225,2.155522,-1.642488,1.395891,-3.252523,-0.307655,8.831013,-0.015267,0.015267,0.000000,-9.624298,-20.378757,133.623062
68776,55.591304,37.673225,2.155522,-1.642488,1.395891,-3.214216,-0.126893,8.535329,-0.015267,0.030534,-0.015267,-9.523851,-20.327114,133.621536
68876,55.591304,37.673225,2.155522,-1.642488,1.395891,-3.179500,-0.251391,8.373721,-0.061069,0.000000,-0.015267,-9.540340,-20.287250,133.620010
68976,55.591304,37.673225,2.155522,-1.642488,1.395891,-3.234566,-0.374693,8.848970,-0.045802,0.015267,-0.015267,-9.516987,-20.177087,133.618484
69076,55.591304,37.673225,2.155522,-1.642488,1.395891,-3.202245,-0.044293,8.552089,-0.076336,-0.015267,-0.015267,-9.518492,-20.149368,133.616958
69176,55.591304,37.673225,2.155522,-1.642488,1.395891,-3.214216,-0.393846,8.358159,-0.061069,-0.015267,-0.015267,-9.483549,-20.195806,133.615432
69276,55.591304,37.673225,2.155522,-1.642488,1.395891,-3.124433,-0.243011,8.535329,-0.076336,-0.015267,-0.015267,-9.486456,-20.137889,133.613906
69376,55.591304,37.673225,2.155522,-1.642488,1.395891,-3.211822,-0.203507,8.700530,-0.076336,-0.015267,-0.015267,-9.414436,-20.102079,133.612380
69476,55.591304,37.673225,2.155522,-1.642488,1.395891,-3.147178,-0.205901,8.366539,-0.106870,-0.045802,-0.015267,-9.432537,-20.025524,133.610855
69576,55.591304,37.673225,2.155522,-1.642488,1.395891,-3.166332,-0.241814,8.674193,-0.076336,-0.015267,-0.015267,-9.445832,-20.027379,133.609329
69676,55.591304,37.673225,2.155522,-1.642488,1.395891,-3.110068,-0.281319,9.091981,-0.045802,0.030534,-0.015267,-9.400093,-19.962533,133.607803
69776,55.591304,37.673225,2.155522,-1.642488,1.395891,-3.001132,-0.339977,8.893262,-0.076336,0.000000,-0.015267,-9.372742,-19.938728,133.606277
69876,55.591304,37.673225,2.155522,-1.642488,1.395891,-3.052607,-0.235829,8.504205,-0.076336,-0.030534,0.000000,-9.363603,-19.948766,133.606277
69976,55.591304,37.673225,2.155522,-1.642488,1.395891,-3.063381,-0.204704,8.840590,-0.076336,-0.015267,-0.015267,-9.356013,-19.891338,133.604751
70076,55.591304,37.673225,2.155522,-1.642488,1.395891,-3.032256,-0.257377,8.687361,-0.076336,-0.015267,-0.015267,-9.387902,-19.854335,133.603225
70176,55.591304,37.673225,2.155522,-1.642488,1.395891,-2.974796,-0.372298,8.713698,-0.076336,-0.015267,-0.015267,-9.406315,-19.826211,133.601699
70276,55.591304,37.673225,2.155522,-1.642488,1.395891,-3.125630,-0.138864,9.006987,-0.045802,0.030534,0.000000,-9.335569,-19.816110,133.601699
70376,55.591304,37.673225,2.155522,-1.642488,1.395891,-2.978387,-0.128090,8.554483,-0.091603,-0.015267,-0.030534,-9.304849,-19.822687,133.598648
70476,55.591304,37.673225,2.155522,-1.642488,1.395891,-3.118448,-0.235829,8.773552,-0.076336,-0.015267,-0.015267,-9.443153,-19.825456,133.597122
70576,55.591163,37.673362,2.155522,-1.642488,1.395891,-3.051410,-0.312443,8.772356,-0.061069,-0.030534,-0.015267,-9.421092,-19.781711,133.595596
70695,55.591163,37.673362,2.155522,-1.642488,1.395891,-3.065775,-0.238223,8.850167,-0.076336,-0.030534,-0.015267,-9.377593,-19.616878,133.593780
70795,55.591163,37.673362,2.155522,-1.642488,1.395891,-2.940080,-0.237026,8.696938,-0.061069,0.015267,-0.015267,-9.440414,-19.460212,133.592254
70895,55.591163,37.673362,2.155522,-1.642488,1.395891,-3.003526,-0.154426,8.689756,-0.061069,0.015267,-0.015267,-9.614698,-19.295873,133.590728
70995,55.591163,37.673362,2.155522,-1.642488,1.395891,-2.975993,-0.533907,8.511387,-0.045802,-0.015267,-0.015267,-9.695009,-19.217754,133.589202
71095,55.591163,37.673362,2.155522,-1.642488,1.395891,-3.014300,-0.198719,8.694544,-0.045802,0.030534,-0.015267,-9.687098,-19.066644,133.587677
71195,55.591163,37.673362,2.155522,-1.642488,1.395891,-3.038242,-0.529119,8.640674,-0.061069,0.000000,0.000000,-9.799441,-19.017034,133.587677
71296,55.591163,37.673362,2.155522,-1.642488,1.395891,-2.929306,-0.513556,8.476672,-0.106870,-0.061069,0.000000,-10.044035,-18.942617,133.587677
71396,55.591163,37.673362,2.155522,-1.642488,1.395891,-3.003526,-0.714669,9.105150,-0.076336,-0.045802,0.000000,-10.196228,-18.863042,133.587677
71496,55.591163,37.673362,2.155522,-1.642488,1.395891,-2.961627,-0.503979,8.905234,-0.061069,0.015267,0.000000,-10.156781,-18.891811,133.587677
71596,55.591163,37.673362,2.155522,-1.642488,1.395891,-3.034651,-0.590171,8.514979,-0.076336,-0.015267,0.015267,-10.193721,-19.006567,133.589202
71696,55.591163,37.673362,2.155522,-1.642488,1.395891,-2.900575,-0.524330,8.641872,-0.091603,-0.045802,0.000000,-10.206935,-18.901449,133.589202
71796,55.591163,37.673362,2.155522,-1.642488,1.395891,-2.782062,-0.436942,8.544906,-0.091603,-0.061069,0.000000,-10.242751,-18.674957,133.589202
71896,55.591163,37.673362,2.155522,-1.642488,1.395891,-2.776077,-0.648829,8.939949,-0.030534,0.000000,0.000000,-10.191246,-18.432420,133.589202
71996,55.591163,37.673362,2.155522,-1.642488,1.395891,-2.614468,-0.544681,8.796298,-0.045802,0.015267,0.015267,-10.251372,-18.262937,133.590728
72096,55.591163,37.673362,2.155522,-1.642488,1.395891,-2.608483,-0.463278,9.071631,-0.030534,0.030534,0.000000,-10.175369,-18.117193,133.590728
72196,55.591163,37.673362,2.155522,-1.642488,1.395891,-2.609680,-0.399832,8.925584,-0.045802,-0.030534,0.000000,-10.068164,-17.975618,133.590728
72296,55.591163,37.673362,2.155522,-1.642488,1.395891,-2.682703,-0.367510,9.039309,-0.045802,0.000000,0.015267,-10.031653,-17.829784,133.592254
72396,55.591163,37.673362,2.155522,-1.642488,1.395891,-2.615665,-0.374693,8.732851,-0.045802,0.000000,0.000000,-9.976985,-17.758735,133.592254
72496,55.591163,37.673362,2.155522,-1.642488,1.395891,-2.582147,-0.447716,8.628704,-0.045802,0.000000,0.000000,-9.901439,-17.666528,133.592254
72680,55.591163,37.673362,2.155522,-1.642488,1.395891,nan,nan,nan,nan,nan,nan,nan,nan,133.592254
72780,55.591163,37.673362,2.155522,-1.642488,1.395891,-2.572570,-0.220267,8.840590,-0.076336,-0.015267,-0.015267,-9.796419,-17.408519,133.587921
72880,55.591163,37.673362,2.155522,-1.642488,1.395891,-2.701857,-0.418985,8.753202,-0.076336,-0.030534,0.000000,-9.796066,-17.406948,133.587921
72980,55.591163,37.673362,2.155522,-1.642488,1.395891,-2.753332,-0.073023,9.059659,-0.061069,0.045802,-0.030534,-9.664976,-17.283342,133.584869
73080,55.591163,37.673362,2.155522,-1.642488,1.395891,-2.597709,-0.299275,9.022549,-0.061069,0.015267,-0.015267,-9.652925,-17.160114,133.583343
73180,55.591163,37.673362,2.155522,-1.642488,1.395891,-2.597709,-0.324414,8.939949,-0.061069,-0.015267,-0.015267,-9.678186,-17.151536,133.581817
73280,55.591163,37.673362,2.155522,-1.642488,1.395891,-2.633622,-0.276530,8.503007,-0.061069,0.000000,-0.015267,-9.649123,-17.117275,133.580291
73380,55.591163,37.673362,2.155522,-1.642488,1.395891,-2.584541,-0.113725,8.902839,-0.061069,-0.015267,-0.030534,-9.544378,-16.856498,133.577239
73480,55.591163,37.673362,2.155522,-1.642488,1.395891,-2.351106,-0.022745,9.001002,-0.091603,-0.076336,-0.015267,-9.477162,-16.557207,133.575714
73580,55.591163,37.673362,2.155522,-1.642488,1.395891,-2.408567,-0.126893,8.711303,-0.061069,0.030534,-0.030534,-9.348785,-16.408290,133.572662
73680,55.591163,37.673362,2.155522,-1.642488,1.395891,-2.329558,0.026336,8.664616,-0.106870,-0.091603,-0.015267,-9.349457,-16.279994,133.571136
73780,55.591163,37.673362,2.155522,-1.642488,1.395891,-2.407370,-0.056264,9.289503,-0.061069,-0.030534,-0.030534,-9.233224,-16.115537,133.568084
73880,55.591163,37.673362,2.155522,-1.642488,1.395891,-2.367866,0.019154,9.490616,-0.030534,0.000000,-0.015267,-9.130332,-15.927079,133.566558
73980,55.591163,37.673362,2.155522,-1.642488,1.395891,-2.202666,-0.161609,8.908825,-0.045802,0.030534,-0.030534,-9.041085,-15.881798,133.563507
74080,55.591163,37.673362,2.155522,-1.642488,1.395891,-2.384625,0.004788,8.825028,-0.030534,0.015267,-0.030534,-8.841910,-15.882469,133.560455
74180,55.591163,37.673362,2.155522,-1.642488,1.395891,-2.571372,0.177171,8.823831,-0.061069,0.000000,-0.030534,-8.744449,-15.837016,133.557403
74280,55.591163,37.673362,2.155522,-1.642488,1.395891,-2.540248,0.047884,9.063251,-0.061069,-0.045802,-0.030534,-8.528946,-15.678403,133.554351
74380,55.591163,37.673362,2.155522,-1.642488,1.395891,-2.510320,0.183156,8.728063,-0.061069,-0.015267,-0.030534,-8.267792,-15.592995,133.551300
74480,55.591163,37.673362,2.155522,-1.642488,1.395891,-2.503138,0.411803,8.397663,-0.076336,-0.045802,-0.045802,-7.952904,-15.611198,133.546722
74580,55.590881,37.673545,2.155522,-1.642488,1.395891,-2.566584,0.378284,9.166202,-0.030534,0.015267,-0.061069,-7.743148,-15.471539,133.540618
74703,55.590881,37.673545,2.155522,-1.642488,1.395891,-2.494758,0.418985,8.769961,-0.076336,-0.076336,-0.045802,-7.578911,-15.311424,133.534988
74803,55.590881,37.673545,2.155522,-1.642488,1.395891,-2.491167,0.620098,8.851365,-0.061069,-0.030534,-0.061069,-7.316010,-15.149723,133.528884
74903,55.590881,37.673545,2.155522,-1.642488,1.395891,-2.443283,0.380678,8.814254,-0.045802,-0.015267,-0.061069,-7.076516,-15.034517,133.522781
75003,55.590881,37.673545,2.155522,-1.642488,1.395891,-2.415750,0.687136,8.816648,-0.045802,0.000000,-0.076336,-6.724509,-14.962307,133.515151
75103,55.590881,37.673545,2.155522,-1.642488,1.395891,-2.427721,0.685939,9.039309,-0.015267,0.030534,-0.076336,-6.397836,-14.903107,133.507522
75203,55.590881,37.673545,2.155522,-1.642488,1.395891,-2.298434,0.749385,9.010579,-0.045802,-0.030534,-0.076336,-6.113915,-14.783838,133.499893
75303,55.590881,37.673545,2.155522,-1.642488,1.395891,-2.407370,0.738611,8.993819,-0.061069,-0.030534,-0.076336,-5.775434,-14.757791,133.492263
75403,55.590881,37.673545,2.155522,-1.642488,1.395891,-2.339135,0.848744,8.561666,-0.091603,-0.061069,-0.091603,-5.671317,-14.635893,133.483108
75503,55.590881,37.673545,2.155522,-1.642488,1.395891,-2.388216,0.638055,9.223663,-0.076336,-0.061069,-0.091603,-5.644602,-14.391854,133.473953
75603,55.590881,37.673545,2.155522,-1.642488,1.395891,-2.640805,-0.171185,9.384074,0.076336,0.076336,-0.061069,-5.051056,-14.533852,133.467849
75703,55.590881,37.673545,2.155522,-1.642488,1.395891,-2.515109,0.972046,8.950723,0.030534,0.030534,-0.061069,-4.300424,-14.694454,133.461746
75803,55.590881,37.673545,2.155522,-1.642488,1.395891,-2.440889,1.405396,7.680599,-0.030534,0.045802,-0.091603,-3.757029,-14.998762,133.452590
75904,55.590881,37.673545,2.155522,-1.642488,1.395891,-2.618060,1.448492,8.480263,-0.137405,-0.076336,-0.122137,-3.970475,-14.859749,133.440261
76004,55.590881,37.673545,2.155522,-1.642488,1.395891,-2.807201,0.244209,9.130289,-0.045802,-0.061069,-0.122137,-4.343884,-14.301108,133.428054
76104,55.590881,37.673545,2.155522,-1.642488,1.395891,-2.785654,0.654814,9.465476,-0.045802,-0.045802,-0.091603,-4.304824,-14.007768,133.418899
76204,55.590881,37.673545,2.155522,-1.642488,1.395891,-2.179921,0.767342,8.433576,-0.015267,0.061069,-0.106870,-3.859945,-14.087826,133.408218
76304,55.590881,37.673545,2.155522,-1.642488,1.395891,-2.936488,0.891840,8.912416,-0.015267,0.045802,-0.091603,-3.515037,-14.651000,133.399063
76404,55.590881,37.673545,2.155522,-1.642488,1.395891,-2.790442,0.681150,9.084799,-0.045802,-0.015267,-0.091603,-3.485602,-14.988557,133.389907
76504,55.590881,37.673545,2.155522,-1.642488,1.395891,-2.887407,0.460884,9.418790,0.061069,0.106870,-0.076336,-3.284704,-15.113950,133.382278
76697,55.590881,37.673545,2.155522,-1.642488,1.395891,-2.559401,0.523133,9.239225,-0.076336,-0.122137,-0.076336,-3.371667,-14.544633,133.367538
76797,55.590881,37.673545,2.155522,-1.642488,1.395891,-2.699462,0.605733,8.933964,-0.106870,-0.106870,-0.091603,-3.490938,-14.463243,133.358383
76897,55.590881,37.673545,2.155522,-1.642488,1.395891,-2.888604,0.363919,9.391257,-0.015267,-0.076336,-0.061069,-3.366095,-14.464818,133.352279
76997,55.590881,37.673545,2.155522,-1.642488,1.395891,-2.458845,1.027112,7.376535,-0.061069,-0.030534,-0.076336,-3.014486,-14.782740,133.344650
77097,55.590881,37.673545,2.155522,-1.642488,1.395891,-2.766500,0.853533,8.949526,0.015267,0.061069,-0.061069,-2.756277,-15.026620,133.338546
77197,55.590881,37.673545,2.155522,-1.642488,1.395891,-2.585738,0.483629,8.858547,-0.015267,0.045802,-0.076336,-2.710858,-15.103494,133.330917
77297,55.590881,37.673545,2.155522,-1.642488,1.395891,-2.655170,0.762553,9.362526,-0.030534,0.045802,-0.091603,-2.538769,-15.238362,133.321762
77398,55.590881,37.673545,2.155522,-1.642488,1.395891,-2.571372,0.530316,9.095573,-0.061069,-0.030534,-0.076336,-2.519836,-15.425308,133.314056
77498,55.590881,37.673545,2.155522,-1.642488,1.395891,-2.557007,0.495600,8.713698,-0.061069,-0.015267,-0.076336,-2.556909,-15.650811,133.306427
77598,55.590881,37.673545,2.155522,-1.642488,1.395891,-2.804807,0.535104,8.931570,-0.030534,0.015267,-0.076336,-2.624256,-15.814047,133.298797
77698,55.590881,37.673545,2.155522,-1.642488,1.395891,-2.786851,0.572214,8.809466,-0.061069,-0.015267,-0.076336,-2.690623,-15.858234,133.291168
77798,55.590881,37.673545,2.155522,-1.642488,1.395891,-2.741361,0.543484,8.960300,-0.061069,-0.030534,-0.061069,-2.930629,-15.728653,133.285064
77898,55.590881,37.673545,2.155522,-1.642488,1.395891,-2.730587,0.158017,8.981848,-0.030534,0.030534,-0.076336,-3.201660,-15.558174,133.277435
77998,55.590881,37.673545,2.155522,-1.642488,1.395891,-2.579752,0.326809,8.768764,-0.045802,-0.015267,-0.045802,-3.394787,-15.505502,133.272857
78098,55.590881,37.673545,2.155522,-1.642488,1.395891,-2.640805,0.288501,8.481460,-0.061069,-0.030534,-0.061069,-3.605973,-15.482594,133.266754
78198,55.590881,37.673545,2.155522,-1.642488,1.395891,-2.416947,0.332794,8.899249,-0.061069,0.030534,-0.061069,-3.905203,-15.279389,133.260650
78298,55.590881,37.673545,2.155522,-1.642488,1.395891,-2.665944,0.045490,9.130289,-0.045802,0.000000,-0.045802,-4.206428,-15.289876,133.256072
78398,55.590881,37.673545,2.155522,-1.642488,1.395891,-3.080141,0.047884,8.670602,-0.030534,0.015267,-0.045802,-4.396243,-15.476293,133.251495
78498,55.590881,37.673545,2.155522,-1.642488,1.395891,nan,nan,nan,nan,nan,nan,nan,nan,133.251495
78603,55.590881,37.673545,2.155522,-1.642488,1.395891,-3.049016,0.245406,8.838196,-0.045802,0.015267,-0.045802,-4.630068,-15.788836,133.242111
78703,55.590881,37.673545,2.155522,-1.642488,1.395891,-2.697068,0.010774,8.655039,-0.076336,-0.015267,-0.045802,-4.839614,-15.753759,133.237533
78803,55.590881,37.673545,2.155522,-1.642488,1.395891,-2.701857,0.155623,8.439561,-0.061069,-0.030534,-0.045802,-5.002565,-15.745529,133.232955
78903,55.590881,37.673545,2.155522,-1.642488,1.395891,-2.931700,-0.025139,8.894460,-0.045802,-0.015267,-0.030534,-5.137313,-15.771711,133.229904
79003,55.590881,37.673545,2.155522,-1.642488,1.395891,-2.882619,0.074220,8.807071,-0.061069,-0.015267,-0.045802,-5.090106,-15.984106,133.225326
79104,55.590881,37.673545,2.155522,-1.642488,1.395891,-2.782062,0.339977,8.179791,-0.061069,0.000000,-0.045802,-5.106004,-16.237066,133.220703
79204,55.590881,37.673545,2.155522,-1.642488,1.395891,-2.789245,0.439336,8.469489,-0.106870,-0.045802,-0.045802,-5.220408,-16.243043,133.216125
79304,55.590881,37.673545,2.155522,-1.642488,1.395891,-2.832341,0.234632,8.929176,-0.076336,-0.045802,-0.045802,-5.436199,-16.293508,133.211547
79404,55.590881,37.673545,2.155522,-1.642488,1.395891,-2.729390,0.004788,9.154231,-0.030534,-0.015267,-0.045802,-5.462692,-16.237985,133.206970
79504,55.590881,37.673545,2.155522,-1.642488,1.395891,-2.448071,0.520739,8.652646,-0.045802,-0.030534,-0.045802,-5.218788,-16.115175,133.202392
79604,55.590881,37.673545,2.155522,-1.642488,1.395891,-2.706645,0.830788,8.778341,-0.076336,0.000000,-0.061069,-5.095615,-16.272523,133.196289
79704,55.590881,37.673545,2.155522,-1.642488,1.395891,-2.736572,0.478840,8.863335,-0.076336,-0.015267,-0.076336,-5.146957,-16.372838,133.188659
79804,55.590881,37.673545,2.155522,-1.642488,1.395891,-2.838326,0.415394,8.872912,-0.045802,0.000000,-0.076336,-5.186803,-16.410961,133.181030
79904,55.590881,37.673545,2.155522,-1.642488,1.395891,-2.741361,0.514753,8.519767,-0.045802,-0.045802,-0.076336,-4.919467,-16.471853,133.173400
80004,55.590881,37.673545,2.155522,-1.642488,1.395891,-2.844312,1.073799,8.749610,-0.076336,-0.076336,-0.091603,-4.635534,-16.383298,133.164245
80104,55.590881,37.673545,2.155522,-1.642488,1.395891,-2.694674,0.902614,8.323443,-0.091603,-0.030534,-0.106870,-4.675758,-16.263879,133.153564
80204,55.590881,37.673545,2.155522,-1.642488,1.395891,-2.850297,0.646434,8.680179,-0.076336,-0.045802,-0.091603,-4.960189,-16.129508,133.144409
80304,55.590881,37.673545,2.155522,-1.642488,1.395891,-2.879028,0.365116,9.169793,-0.030534,0.030534,-0.106870,-5.041255,-16.025180,133.133728
80404,55.590881,37.673545,2.155522,-1.642488,1.395891,-2.817975,0.630872,9.222465,-0.030534,0.015267,-0.091603,-4.986297,-16.122692,133.124572
80504,55.590881,37.673545,2.155522,-1.642488,1.395891,nan,nan,nan,nan,nan,nan,nan,nan,133.124572
80610,55.590881,37.673545,2.155522,-1.642488,1.395891,-2.806004,0.750582,8.398860,-0.030534,0.030534,-0.106870,-4.740697,-16.649919,133.102554
80710,55.590881,37.673545,2.155522,-1.642488,1.395891,-2.930503,0.526724,8.637084,-0.030534,0.015267,-0.106870,-4.786766,-16.757003,133.091873
80811,55.590881,37.673545,2.155522,-1.642488,1.395891,-3.436877,0.802058,9.269152,-0.030534,-0.045802,-0.106870,-4.647295,-16.853256,133.081085
80911,55.590881,37.673545,2.155522,-1.642488,1.395891,-2.991555,0.852336,8.769961,-0.045802,-0.015267,-0.122137,-4.512771,-16.718175,133.068878
81011,55.590881,37.673545,2.155522,-1.642488,1.395891,-3.051410,0.993594,8.366539,-0.045802,-0.015267,-0.137405,-4.318988,-16.778509,133.055145
81111,55.590881,37.673545,2.155522,-1.642488,1.395891,-3.335123,0.987608,8.433576,-0.030534,-0.030534,-0.122137,-4.201345,-16.969543,133.042938
81211,55.590881,37.673545,2.155522,-1.642488,1.395891,-3.131616,0.860715,8.576031,-0.045802,-0.015267,-0.137405,-4.039612,-17.126359,133.029205
81311,55.590881,37.673545,2.155522,-1.642488,1.395891,-3.252523,0.835576,8.631097,-0.015267,0.015267,-0.137405,-3.943215,-17.307077,133.015472
81411,55.590881,37.673545,2.155522,-1.642488,1.395891,-3.241749,0.930147,8.554483,-0.030534,-0.015267,-0.137405,-3.875299,-17.407690,133.001739
81511,55.590881,37.673545,2.155522,-1.642488,1.395891,-3.269282,0.782904,8.652646,-0.030534,-0.015267,-0.137405,-3.776639,-17.540094,132.988006
81611,55.590881,37.673545,2.155522,-1.642488,1.395891,-3.296816,1.011550,8.459912,-0.061069,-0.015267,-0.152672,-3.834418,-17.668319,132.972732
81711,55.590881,37.673545,2.155522,-1.642488,1.395891,-3.445256,0.873884,8.866927,-0.030534,0.000000,-0.152672,-3.935191,-17.710523,132.957458
81811,55.590881,37.673545,2.155522,-1.642488,1.395891,-3.541024,0.482432,8.601170,-0.015267,-0.030534,-0.122137,-4.050700,-17.933769,132.945251
81911,55.590881,37.673545,2.155522,-1.642488,1.395891,-3.489549,0.633266,8.720880,-0.015267,0.000000,-0.122137,-3.931186,-18.166305,132.933044
82011,55.590881,37.673545,2.155522,-1.642488,1.395891,-3.372233,0.816423,8.513782,-0.015267,0.000000,-0.122137,-3.749392,-18.417617,132.920837
82111,55.590881,37.673545,2.155522,-1.642488,1.395891,-3.555390,0.820014,8.750807,-0.015267,0.015267,-0.122137,-3.605112,-18.642906,132.908630
82211,55.590881,37.673545,2.155522,-1.642488,1.395891,-3.287239,0.865504,8.814254,-0.015267,-0.030534,-0.122137,-3.410645,-18.798278,132.896423
82311,55.590881,37.673545,2.155522,-1.642488,1.395891,-3.524265,0.967257,8.564060,-0.015267,-0.030534,-0.122137,-3.260134,-18.881042,132.884216
82411,55.590881,37.673545,2.155522,-1.642488,1.395891,-3.394978,0.982820,8.279150,-0.045802,-0.061069,-0.137405,-3.091323,-18.867858,132.870483
82511,55.590881,37.673545,2.155522,-1.642488,1.395891,nan,nan,nan,nan,nan,nan,nan,nan,132.870483
82616,55.590881,37.673545,2.155522,-1.642488,1.395891,-3.385401,0.920571,8.627507,-0.030534,-0.030534,-0.137405,-2.727010,-19.022512,132.842315
82716,55.590881,37.673545,2.155522,-1.642488,1.395891,-3.361459,0.937330,8.469489,-0.015267,0.000000,-0.137405,-2.570253,-19.081499,132.828582
82816,55.590881,37.673545,2.155522,-1.642488,1.395891,-3.327940,0.966060,8.423999,-0.015267,-0.015267,-0.137405,-2.433188,-19.132242,132.814849
82916,55.590881,37.673545,2.155522,-1.642488,1.395891,-3.341109,1.215057,8.554483,-0.030534,0.000000,-0.137405,-2.349112,-19.118362,132.801116
83016,55.590881,37.673545,2.155522,-1.642488,1.395891,-3.458424,0.994791,8.570045,-0.030534,-0.015267,-0.137405,-2.428371,-19.109880,132.787384
83116,55.590881,37.673545,2.155522,-1.642488,1.395891,-3.482366,0.661997,8.547301,-0.045802,-0.076336,-0.122137,-2.428423,-19.125955,132.775177
83216,55.590881,37.673545,2.155522,-1.642488,1.395891,-3.379416,0.926556,8.565257,-0.015267,0.000000,-0.122137,-2.286010,-19.216161,132.762969
83316,55.590881,37.673545,2.155522,-1.642488,1.395891,-3.341109,1.077391,8.218098,-0.045802,-0.015267,-0.122137,-2.142553,-19.428371,132.750762
83416,55.590881,37.673545,2.155522,-1.642488,1.395891,-3.375824,0.835576,8.649054,-0.045802,0.000000,-0.122137,-2.225529,-19.515554,132.738555
83516,55.590881,37.673545,2.155522,-1.642488,1.395891,-3.459621,0.703895,8.493431,-0.030534,-0.030534,-0.122137,-2.352078,-19.622646,132.726348
83616,55.590881,37.673545,2.155522,-1.642488,1.395891,-3.507505,0.729034,8.698135,-0.015267,-0.045802,-0.106870,-2.321846,-19.531789,132.715667
83716,55.590881,37.673545,2.155522,-1.642488,1.395891,-3.327940,0.549469,8.309078,0.000000,-0.030534,-0.091603,-2.100802,-19.502637,132.706512
83816,55.590881,37.673545,2.155522,-1.642488,1.395891,-3.399766,1.076194,8.649054,-0.015267,-0.015267,-0.106870,-1.795275,-19.504846,132.695831
83916,55.590881,37.673545,2.155522,-1.642488,1.395891,-3.209427,1.121683,8.383297,-0.045802,0.000000,-0.122137,-1.674322,-19.514223,132.683624
84016,55.590881,37.673545,2.155522,-1.642488,1.395891,-3.286042,1.096544,8.657434,-0.076336,-0.015267,-0.122137,-1.901330,-19.546100,132.671417
84116,55.590881,37.673545,2.155522,-1.642488,1.395891,-3.344700,0.782904,8.868124,-0.015267,0.015267,-0.122137,-2.156433,-19.707395,132.659210
84216,55.590881,37.673545,2.155522,-1.642488,1.395891,-3.387795,1.006762,8.556878,-0.030534,-0.015267,-0.122137,-2.093940,-19.829662,132.647003
84316,55.590881,37.673545,2.155522,-1.642488,1.395891,-3.192668,1.399411,8.652646,-0.015267,0.000000,-0.122137,-1.717394,-19.863241,132.634796
84416,55.590881,37.673545,2.155522,-1.642488,1.395891,-3.185485,1.849521,8.396466,-0.030534,-0.045802,-0.137405,-1.328014,-19.795942,132.621063
84516,55.590881,37.673545,2.155522,-1.642488,1.395891,-3.162740,1.559822,8.298303,-0.030534,-0.045802,-0.167939,-1.087781,-19.574611,132.604263
84694,55.590297,37.673408,2.155522,-1.642488,1.395891,-3.128025,1.559822,8.752005,-0.015267,-0.030534,-0.167939,-0.793149,-19.085258,132.574371
84794,55.590297,37.673408,2.155522,-1.642488,1.395891,-3.068170,1.499967,8.374918,-0.015267,-0.045802,-0.152672,-0.457723,-19.034389,132.559097
84894,55.590297,37.673408,2.155522,-1.642488,1.395891,-3.120842,1.678335,8.558074,-0.015267,0.015267,-0.167939,-0.131327,-19.113246,132.542297
84994,55.590297,37.673408,2.155522,-1.642488,1.395891,-3.230975,1.734599,8.899249,-0.015267,0.030534,-0.167939,0.142359,-19.332660,132.525497
85094,55.590297,37.673408,2.155522,-1.642488,1.395891,-3.296816,1.665167,8.720880,-0.015267,0.015267,-0.152672,0.263893,-19.586473,132.510223
85194,55.590297,37.673408,2.155522,-1.642488,1.395891,-3.205836,1.511938,8.485052,-0.045802,0.000000,-0.167939,0.262331,-19.687570,132.493423
85294,55.590297,37.673408,2.155522,-1.642488,1.395891,-3.301604,1.592144,8.571243,-0.061069,-0.106870,-0.152672,0.271731,-19.655988,132.478149
85394,55.590297,37.673408,2.155522,-1.642488,1.395891,-3.088520,1.203086,8.409634,-0.030534,-0.045802,-0.137405,0.291077,-19.414617,132.464416
85494,55.590297,37.673408,2.155522,-1.642488,1.395891,-3.043030,1.448492,8.650251,-0.045802,-0.045802,-0.137405,0.285598,-19.121276,132.450683
85594,55.590297,37.673408,2.155522,-1.642488,1.395891,-2.916138,1.126472,8.567651,0.000000,0.015267,-0.137405,0.373549,-19.006521,132.436950
85694,55.590297,37.673408,2.155522,-1.642488,1.395891,-2.979584,1.374272,8.805874,-0.030534,0.000000,-0.137405,0.411520,-19.091014,132.423217
85794,55.590297,37.673408,2.155522,-1.642488,1.395891,-3.060987,1.478420,9.001002,-0.030534,0.045802,-0.137405,0.448836,-19.296161,132.409484
85894,55.590297,37.673408,2.155522,-1.642488,1.395891,-3.041833,1.266533,8.768764,-0.045802,0.000000,-0.137405,0.405177,-19.438356,132.395751
85994,55.590297,37.673408,2.155522,-1.642488,1.395891,-3.003526,1.290475,8.671799,-0.030534,0.015267,-0.137405,0.341719,-19.424167,132.382019
86094,55.590297,37.673408,2.155522,-1.642488,1.395891,-3.178303,1.276109,8.769961,-0.045802,-0.045802,-0.122137,0.192360,-19.227418,132.369812
86194,55.590297,37.673408,2.155522,-1.642488,1.395891,-3.011906,1.022324,8.699333,-0.015267,0.000000,-0.137405,0.011061,-19.083723,132.356079
86294,55.590297,37.673408,2.155522,-1.642488,1.395891,-3.016694,1.193510,8.489840,-0.045802,0.000000,-0.137405,-0.080167,-18.962076,132.342346
86394,55.590297,37.673408,2.155522,-1.642488,1.395891,-2.932897,1.023521,8.783129,-0.045802,-0.030534,-0.122137,-0.168615,-18.879199,132.330139
86494,55.590297,37.673408,2.155522,-1.642488,1.395891,-2.809596,1.094150,8.350976,-0.045802,-0.015267,-0.122137,-0.169201,-18.829572,132.317932
86688,55.590297,37.673408,2.155522,-1.642488,1.395891,-2.901772,0.906205,8.963891,0.000000,0.061069,-0.106870,-0.220337,-18.852853,132.297195
86788,55.590297,37.673408,2.155522,-1.642488,1.395891,-2.759317,0.812831,8.747217,0.015267,0.061069,-0.091603,-0.293101,-18.894866,132.288040
86888,55.590297,37.673408,2.155522,-1.642488,1.395891,-2.907758,0.676362,9.023747,-0.015267,0.030534,-0.091603,-0.462067,-18.736768,132.278884
86988,55.590297,37.673408,2.155522,-1.642488,1.395891,-2.881422,0.644040,8.554483,-0.045802,-0.015267,-0.076336,-0.788094,-18.654880,132.271255
87088,55.590297,37.673408,2.155522,-1.642488,1.395891,-2.899378,0.413000,8.464700,-0.045802,0.000000,-0.076336,-1.107751,-18.607610,132.263626
87188,55.590297,37.673408,2.155522,-1.642488,1.395891,-2.889801,0.582988,8.256405,-0.061069,-0.015267,-0.076336,-1.443172,-18.642789,132.255996
87288,55.590297,37.673408,2.155522,-1.642488,1.395891,-2.731784,0.401029,8.270771,-0.045802,-0.030534,-0.061069,-1.769257,-18.525384,132.249893
87388,55.590297,37.673408,2.155522,-1.642488,1.395891,-2.905364,0.464475,8.710106,-0.045802,-0.030534,-0.061069,-2.025942,-18.159566,132.243789
87488,55.590297,37.673408,2.155522,-1.642488,1.395891,-2.990358,0.288501,8.611944,-0.015267,-0.015267,-0.045802,-2.239166,-18.000221,132.239212
87588,55.590297,37.673408,2.155522,-1.642488,1.395891,-3.045424,0.381875,8.546103,-0.030534,0.015267,-0.061069,-2.419214,-18.008159,132.233108
87688,55.590297,37.673408,2.155522,-1.642488,1.395891,-2.924517,0.390255,8.784326,-0.061069,-0.015267,-0.061069,-2.669322,-18.076681,132.227005
87788,55.590297,37.673408,2.155522,-1.642488,1.395891,-2.857480,0.404620,8.523359,-0.076336,-0.030534,-0.061069,-2.884103,-18.151451,132.220901
87888,55.590297,37.673408,2.155522,-1.642488,1.395891,-2.896984,0.380678,9.041703,-0.045802,0.030534,-0.061069,-3.161505,-18.114641,132.214797
87988,55.590297,37.673408,2.155522,-1.642488,1.395891,-2.753332,0.169988,8.506599,-0.061069,-0.015267,-0.045802,-3.459152,-18.115631,132.210220
88088,55.590297,37.673408,2.155522,-1.642488,1.395891,-2.905364,0.250194,8.921993,-0.061069,0.015267,-0.061069,-3.808714,-17.911491,132.204116
88188,55.590297,37.673408,2.155522,-1.642488,1.395891,-2.821567,-0.034716,8.706515,-0.076336,-0.045802,-0.045802,-4.197614,-17.622627,132.199539
88288,55.590297,37.673408,2.155522,-1.642488,1.395891,-2.671929,-0.106542,8.550891,-0.076336,0.000000,-0.045802,-4.540969,-17.355506,132.194961
88388,55.590297,37.673408,2.155522,-1.642488,1.395891,-2.867057,-0.175974,8.877700,-0.045802,0.015267,-0.030534,-4.856277,-17.345808,132.191909
88488,55.590297,37.673408,2.155522,-1.642488,1.395891,-2.627636,-0.331597,8.530541,-0.076336,-0.045802,-0.030534,-5.009799,-17.308496,132.188858
88646,55.590297,37.673408,2.155522,-1.642488,1.395891,-2.912546,-0.106542,9.736021,-0.061069,-0.015267,-0.015267,-5.367224,-16.940351,132.186447
88747,55.590297,37.673408,2.155522,-1.642488,1.395891,-2.589329,-0.475249,8.431181,-0.061069,-0.045802,-0.015267,-5.520624,-16.878978,132.184906
88847,55.590297,37.673408,2.155522,-1.642488,1.395891,-2.640805,0.079009,9.244013,-0.091603,-0.015267,-0.030534,-5.816197,-16.910020,132.181854
88947,55.590297,37.673408,2.155522,-1.642488,1.395891,-2.722207,-0.023942,9.227253,-0.076336,0.030534,-0.015267,-6.111058,-17.210548,132.180328
89047,55.590297,37.673408,2.155522,-1.642488,1.395891,-2.760514,-0.512359,9.194932,-0.045802,0.045802,-0.030534,-6.455639,-17.369285,132.177276
89147,55.590297,37.673408,2.155522,-1.642488,1.395891,-2.815581,-0.104148,8.744822,-0.015267,0.045802,-0.015267,-6.663358,-17.423791,132.175750
89247,55.590297,37.673408,2.155522,-1.642488,1.395891,-2.735375,-0.293290,9.173384,-0.045802,-0.030534,-0.015267,-6.836781,-17.230701,132.174224
89347,55.590297,37.673408,2.155522,-1.642488,1.395891,-2.742558,-0.390255,8.499417,-0.061069,-0.045802,-0.015267,-7.076025,-16.979644,132.172698
89447,55.590297,37.673408,2.155522,-1.642488,1.395891,-2.608483,-0.319626,8.828619,-0.061069,-0.015267,-0.015267,-7.274124,-16.682865,132.171173
89547,55.590297,37.673408,2.155522,-1.642488,1.395891,-2.527080,-0.284910,8.659828,-0.076336,-0.045802,-0.015267,-7.383621,-16.543407,132.169647
89647,55.590297,37.673408,2.155522,-1.642488,1.395891,-2.603694,-0.221464,8.639477,-0.061069,0.000000,-0.015267,-7.443515,-16.503377,132.168121
89747,55.590297,37.673408,2.155522,-1.642488,1.395891,-2.547430,-0.171185,8.842985,-0.061069,0.000000,-0.015267,-7.487978,-16.580051,132.166595
89847,55.590297,37.673408,2.155522,-1.642488,1.395891,-2.783259,-0.035913,8.956709,-0.076336,-0.061069,-0.015267,-7.540977,-16.665098,132.165069
89947,55.590297,37.673408,2.155522,-1.642488,1.395891,-2.924517,-0.278924,8.972271,-0.045802,-0.015267,-0.015267,-7.635937,-16.696001,132.163543
90047,55.590297,37.673408,2.155522,-1.642488,1.395891,-2.817975,-0.256180,8.686164,-0.076336,-0.030534,-0.015267,-7.714525,-16.738542,132.162017
90147,55.590297,37.673408,2.155522,-1.642488,1.395891,-2.839523,-0.247800,8.680179,-0.076336,0.000000,-0.030534,-7.790869,-16.781703,132.158966
90247,55.590297,37.673408,2.155522,-1.642488,1.395891,-2.910152,-0.276530,8.802283,-0.061069,-0.015267,-0.015267,-7.873413,-16.864149,132.157440
90347,55.590297,37.673408,2.155522,-1.642488,1.395891,-2.789245,-0.343568,8.768764,-0.045802,0.030534,-0.015267,-7.940370,-16.931903,132.155914
90447,55.590297,37.673408,2.155522,-1.642488,1.395891,-2.886210,-0.323217,8.835802,-0.076336,-0.030534,0.000000,-8.099248,-16.989500,132.155914
90547,55.590297,37.673408,2.155522,-1.642488,1.395891,nan,nan,nan,nan,nan,nan,nan,nan,132.155914
90650,55.590179,37.672718,2.155522,-1.642488,1.395891,-2.761712,-0.550666,8.675391,-0.061069,-0.015267,0.000000,-8.540705,-17.046651,132.155914
90750,55.590179,37.672718,2.155522,-1.642488,1.395891,-2.755726,-0.409408,8.608353,-0.076336,-0.030534,0.000000,-8.631444,-17.048299,132.155914
90850,55.590179,37.672718,2.155522,-1.642488,1.395891,-2.871845,-0.311246,8.611944,-0.076336,-0.030534,0.000000,-8.731527,-17.082237,132.155914
90950,55.590179,37.672718,2.155522,-1.642488,1.395891,-2.870648,-0.508768,8.911219,-0.061069,0.015267,0.015267,-8.852002,-17.108343,132.157440
91051,55.590179,37.672718,2.155522,-1.642488,1.395891,-2.861071,-0.288501,8.670602,-0.091603,-0.045802,0.000000,-8.994969,-17.150772,132.157440
91151,55.590179,37.672718,2.155522,-1.642488,1.395891,-2.806004,-0.477643,8.763976,-0.076336,0.000000,0.000000,-9.112584,-17.209716,132.157440
91251,55.590179,37.672718,2.155522,-1.642488,1.395891,-2.840720,-0.283713,8.777144,-0.076336,-0.030534,0.000000,-9.185276,-17.270694,132.157440
91351,55.590179,37.672718,2.155522,-1.642488,1.395891,-2.771288,-0.356736,8.620324,-0.091603,-0.030534,0.000000,-9.292524,-17.290096,132.157440
91451,55.590179,37.672718,2.155522,-1.642488,1.395891,-2.772485,-0.277727,8.854955,-0.076336,-0.015267,0.000000,-9.427861,-17.222997,132.157440
91551,55.590179,37.672718,2.155522,-1.642488,1.395891,-2.728193,-0.298078,8.774749,-0.091603,-0.030534,-0.015267,-9.548754,-17.143083,132.155914
91651,55.590179,37.672718,2.155522,-1.642488,1.395891,-2.680309,-0.229843,8.929176,-0.061069,0.015267,-0.015267,-9.662845,-17.000381,132.154388
91751,55.590179,37.672718,2.155522,-1.642488,1.395891,-2.492364,-0.411803,8.631097,0.000000,0.076336,-0.015267,-9.584597,-16.984361,132.152862
91851,55.590179,37.672718,2.155522,-1.642488,1.395891,-2.656367,0.028730,8.906431,-0.076336,0.015267,-0.015267,-9.608475,-16.873180,132.151336
91951,55.590179,37.672718,2.155522,-1.642488,1.395891,-2.668338,-0.286107,8.917204,-0.076336,-0.030534,-0.015267,-9.704959,-16.787364,132.149810
92051,55.590179,37.672718,2.155522,-1.642488,1.395891,-2.522291,-0.465672,8.651449,-0.076336,-0.015267,-0.015267,-9.812149,-16.645858,132.148284
92151,55.590179,37.672718,2.155522,-1.642488,1.395891,-2.657564,-0.331597,8.892066,-0.076336,-0.030534,-0.015267,-9.917266,-16.597784,132.146759
92251,55.590179,37.672718,2.155522,-1.642488,1.395891,-2.703054,-0.566229,8.827423,-0.076336,-0.015267,-0.015267,-10.070610,-16.577640,132.145233
92351,55.590179,37.672718,2.155522,-1.642488,1.395891,-2.802413,-0.774524,9.141062,-0.045802,0.076336,0.000000,-10.292885,-16.604671,132.145233
92451,55.590179,37.672718,2.155522,-1.642488,1.395891,-2.585738,-0.883460,9.004593,-0.076336,-0.030534,0.015267,-10.493797,-16.724952,132.146759
92551,55.590179,37.672718,2.155522,-1.642488,1.395891,-2.632425,-0.982820,8.919599,-0.076336,-0.015267,0.030534,-10.631769,-16.929607,132.149810
92696,55.590171,37.672451,2.155522,-1.642488,1.395891,-2.633622,-0.889446,8.866927,-0.076336,-0.015267,0.030534,-10.786894,-17.037006,139.639999
92796,55.590171,37.672451,2.155522,-1.642488,1.395891,-2.574964,-0.835576,8.768764,-0.076336,-0.030534,0.030534,-10.921998,-16.970655,139.643051
92896,55.590171,37.672451,2.155522,-1.642488,1.395891,-2.618060,-0.774524,8.815451,-0.091603,-0.061069,0.030534,-11.091835,-16.829103,139.646102
92996,55.590171,37.672451,2.155522,-1.642488,1.395891,-2.716222,-0.944513,8.747217,-0.076336,-0.015267,0.030534,-11.393855,-16.769876,139.649154
93096,55.590171,37.672451,2.155522,-1.642488,1.395891,-2.744952,-0.878672,8.729260,-0.091603,-0.015267,0.030534,-11.697360,-16.779220,139.652206
93196,55.590171,37.672451,2.155522,-1.642488,1.395891,-2.688688,-1.015141,8.696938,-0.106870,-0.030534,0.030534,-11.973209,-16.844226,139.655258
93296,55.590171,37.672451,2.155522,-1.642488,1.395891,-2.777274,-0.949301,8.911219,-0.091603,-0.015267,0.030534,-12.188765,-16.926094,139.658309
93396,55.590171,37.672451,2.155522,-1.642488,1.395891,-2.676717,-0.867898,8.789114,-0.122137,-0.030534,0.015267,-12.378552,-16.954242,139.659835
93496,55.590171,37.672451,2.155522,-1.642488,1.395891,-2.802413,-0.969652,8.665814,-0.091603,0.000000,0.015267,-12.472650,-17.047349,139.661361
93596,55.590171,37.672451,2.155522,-1.642488,1.395891,-2.713828,-0.405817,8.705318,-0.106870,-0.015267,0.015267,-12.466191,-16.998937,139.662887
93696,55.590171,37.672451,2.155522,-1.642488,1.395891,-2.706645,-0.930147,8.803480,-0.076336,0.000000,0.015267,-12.526160,-17.047689,139.664413
93796,55.590171,37.672451,2.155522,-1.642488,1.395891,-2.761712,-0.718261,9.018959,-0.091603,-0.015267,0.000000,-12.522194,-17.081806,139.664413
93896,55.590171,37.672451,2.155522,-1.642488,1.395891,-2.816778,-0.775721,8.635886,-0.106870,-0.076336,0.015267,-12.577115,-17.173904,139.665939
93996,55.590171,37.672451,2.155522,-1.642488,1.395891,-2.760514,-0.828394,9.105150,-0.076336,-0.030534,0.015267,-12.467118,-17.156639,139.667465
94096,55.590171,37.672451,2.155522,-1.642488,1.395891,-2.783259,-0.402226,8.588002,-0.106870,-0.061069,0.000000,-12.289144,-17.155117,139.667465
94196,55.590171,37.672451,2.155522,-1.642488,1.395891,-2.571372,-0.602142,8.810663,-0.076336,-0.030534,0.000000,-12.144416,-17.039333,139.667465
94296,55.590171,37.672451,2.155522,-1.642488,1.395891,-2.718616,-0.391452,8.955512,-0.061069,0.000000,0.000000,-11.985326,-17.030714,139.667465
94396,55.590171,37.672451,2.155522,-1.642488,1.395891,-2.650381,-0.553061,8.937556,-0.061069,-0.030534,0.000000,-11.912543,-17.022123,139.667465
94496,55.590171,37.672451,2.155522,-1.642488,1.395891,nan,nan,nan,nan,nan,nan,nan,nan,139.667465
94602,55.590171,37.672451,2.155522,-1.642488,1.395891,-2.688688,-0.129287,8.675391,-0.091603,-0.030534,-0.015267,-11.504456,-17.078758,139.664321
94702,55.590171,37.672451,2.155522,-1.642488,1.395891,-2.809596,-0.107739,8.754399,-0.061069,0.015267,-0.030534,-11.429184,-17.128292,139.661270
94802,55.590171,37.672451,2.155522,-1.642488,1.395891,-2.730587,-0.350751,9.089588,-0.030534,0.030534,-0.015267,-11.353936,-17.055561,139.659744
94902,55.590171,37.672451,2.155522,-1.642488,1.395891,-2.566584,-0.221464,8.978257,-0.045802,-0.015267,-0.015267,-11.128981,-16.903228,139.658218
95002,55.590171,37.672451,2.155522,-1.642488,1.395891,-2.613271,-0.304064,8.528147,-0.045802,-0.015267,-0.015267,-10.854160,-16.749990,139.656692
95102,55.590171,37.672451,2.155522,-1.642488,1.395891,-2.521094,0.023942,8.823831,-0.061069,-0.030534,-0.030534,-10.554521,-16.493759,139.653640
95202,55.590171,37.672451,2.155522,-1.642488,1.395891,-2.638410,-0.124498,8.635886,-0.030534,-0.015267,-0.030534,-10.235825,-16.381961,139.650588
95302,55.590171,37.672451,2.155522,-1.642488,1.395891,-2.432509,0.064643,8.860941,-0.030534,-0.015267,-0.030534,-9.831991,-16.226470,139.647537
95403,55.590171,37.672451,2.155522,-1.642488,1.395891,-2.685097,0.363919,8.845378,-0.061069,-0.015267,-0.045802,-9.459780,-16.237464,139.642913
95503,55.590171,37.672451,2.155522,-1.642488,1.395891,-2.505532,0.112527,8.759187,-0.030534,-0.015267,-0.030534,-8.898684,-16.270408,139.639862
95603,55.590171,37.672451,2.155522,-1.642488,1.395891,-2.688688,0.673968,9.234436,-0.015267,0.045802,-0.061069,-8.362573,-16.185762,139.633758
95703,55.590171,37.672451,2.155522,-1.642488,1.395891,-2.697068,0.890643,8.813056,0.000000,0.000000,-0.061069,-7.696949,-16.229274,139.627655
95803,55.590171,37.672451,2.155522,-1.642488,1.395891,-2.313996,1.132457,8.875307,-0.015267,-0.015267,-0.091603,-7.026363,-15.934894,139.618499
95903,55.590171,37.672451,2.155522,-1.642488,1.395891,-2.495955,1.376666,9.100361,-0.015267,-0.015267,-0.106870,-6.390414,-15.693599,139.607818
96003,55.590171,37.672451,2.155522,-1.642488,1.395891,-2.591723,1.000776,8.599973,0.015267,0.030534,-0.122137,-5.642980,-15.662189,139.595611
96103,55.590171,37.672451,2.155522,-1.642488,1.395891,-2.590526,1.493982,8.427591,-0.015267,0.030534,-0.106870,-5.075222,-15.612123,139.584930
96203,55.590171,37.672451,2.155522,-1.642488,1.395891,-2.395399,1.819593,8.688558,-0.091603,-0.045802,-0.122137,-4.735271,-15.526705,139.572723
96303,55.590171,37.672451,2.155522,-1.642488,1.395891,-2.706645,1.024718,9.257182,-0.045802,-0.030534,-0.137405,-4.645120,-15.353923,139.558990
96403,55.590171,37.672451,2.155522,-1.642488,1.395891,-2.431312,0.774524,8.744822,-0.061069,-0.045802,-0.122137,-4.637305,-15.108549,139.546783
96503,55.590171,37.672451,2.155522,-1.642488,1.395891,nan,nan,nan,nan,nan,nan,nan,nan,139.546783
96608,55.590171,37.672451,2.155522,-1.642488,1.395891,-2.543839,0.826000,9.269152,-0.045802,-0.015267,-0.091603,-4.197721,-14.862795,139.527999
96708,55.590171,37.672451,2.155522,-1.642488,1.395891,-2.731784,0.495600,8.956709,-0.091603,-0.076336,-0.091603,-4.236107,-14.860654,139.518844
96808,55.590171,37.672451,2.155522,-1.642488,1.395891,-2.479196,0.555455,9.209298,-0.061069,-0.015267,-0.091603,-4.511208,-14.702989,139.509689
96908,55.590171,37.672451,2.155522,-1.642488,1.395891,-2.566584,0.125696,8.602367,-0.061069,0.000000,-0.061069,-4.677950,-14.865908,139.503585
97008,55.590171,37.672451,2.155522,-1.642488,1.395891,-2.553416,0.264559,8.514979,-0.091603,-0.061069,-0.061069,-4.852891,-14.887596,139.497482
97108,55.590171,37.672451,2.155522,-1.642488,1.395891,-2.687491,0.053870,8.456321,-0.091603,-0.030534,-0.061069,-5.264993,-14.929649,139.491378
97208,55.590171,37.672451,2.155522,-1.642488,1.395891,-3.002329,0.181959,8.961498,-0.015267,0.091603,-0.061069,-5.591763,-15.027704,139.485275
97308,55.590171,37.672451,2.155522,-1.642488,1.395891,-2.670732,-0.532710,8.700530,-0.015267,0.030534,-0.030534,-6.038837,-14.947586,139.482223
97408,55.590171,37.672451,2.155522,-1.642488,1.395891,-2.607286,-0.454898,7.050924,-0.076336,0.122137,-0.061069,-6.013278,-15.019893,139.476119
97508,55.590171,37.672451,2.155522,-1.642488,1.395891,-2.898181,-0.105345,10.210074,-0.061069,-0.274809,-0.015267,-6.517971,-14.735425,139.474594
97608,55.590171,37.672451,2.155522,-1.642488,1.395891,-2.553416,-0.731429,8.774749,-0.091603,-0.152672,0.030534,-6.745530,-15.187135,139.477645
97708,55.590171,37.672451,2.155522,-1.642488,1.395891,-2.455254,-0.644040,8.348582,-0.076336,0.015267,-0.015267,-7.309574,-15.371451,139.476119
97808,55.590171,37.672451,2.155522,-1.642488,1.395891,-1.746570,-0.554258,6.224925,-0.152672,0.198473,-0.015267,-7.672636,-15.761018,139.474594
97908,55.590171,37.672451,2.155522,-1.642488,1.395891,-3.187880,0.058658,9.174581,-0.076336,-0.091603,0.000000,-7.759389,-15.693464,139.474594
98008,55.590171,37.672451,2.155522,-1.642488,1.395891,-2.622848,-0.942118,9.023747,-0.076336,-0.030534,0.030534,-8.286617,-15.425273,139.477645
98108,55.590171,37.672451,2.155522,-1.642488,1.395891,-2.555810,-0.634463,8.789114,-0.076336,-0.015267,0.015267,-8.617194,-15.371680,139.479171
98208,55.590171,37.672451,2.155522,-1.642488,1.395891,-2.598906,-0.903811,8.386889,-0.091603,-0.045802,0.030534,-9.033638,-15.471220,139.482223
98308,55.590171,37.672451,2.155522,-1.642488,1.395891,-2.687491,-0.751779,9.045294,-0.091603,0.015267,0.030534,-9.385870,-15.573085,139.485275
98408,55.590171,37.672451,2.155522,-1.642488,1.395891,-2.996343,-1.098939,8.890869,-0.091603,0.015267,0.030534,-9.828724,-15.780991,139.488327
98508,55.590171,37.672451,2.155522,-1.642488,1.395891,-2.931700,-0.932542,8.949526,-0.076336,-0.015267,0.045802,-10.148562,-16.035961,139.492904
98697,55.590137,37.671714,2.155522,-1.642488,1.395891,-2.952051,-0.930147,8.866927,-0.091603,-0.015267,0.045802,-10.539959,-16.434055,139.501556
98797,55.590137,37.671714,2.155522,-1.642488,1.395891,-2.867057,-0.916979,9.114727,-0.076336,-0.015267,0.045802,-10.762228,-16.558956,139.506134
98897,55.590137,37.671714,2.155522,-1.642488,1.395891,-2.786851,-1.011550,9.417593,-0.030534,0.030534,0.045802,-10.759337,-16.639736,139.510711
98997,55.590137,37.671714,2.155522,-1.642488,1.395891,-2.996343,-0.725443,9.008184,-0.015267,0.030534,0.045802,-10.493623,-16.982248,139.515289
99097,55.590137,37.671714,2.155522,-1.642488,1.395891,-2.639607,-0.440533,8.663419,-0.061069,-0.015267,0.030534,-10.326980,-17.179941,139.518341
99197,55.590137,37.671714,2.155522,-1.642488,1.395891,-2.667141,-0.362722,8.019379,-0.091603,-0.030534,0.030534,-10.252058,-17.329517,139.521392
99297,55.590137,37.671714,2.155522,-1.642488,1.395891,-3.007117,-0.579397,8.823831,-0.091603,-0.015267,0.015267,-10.369464,-17.335660,139.522918
99397,55.590137,37.671714,2.155522,-1.642488,1.395891,-2.719813,-0.793678,8.767567,-0.076336,0.000000,0.030534,-10.521937,-17.197933,139.525970
99497,55.590137,37.671714,2.155522,-1.642488,1.395891,-2.877830,-0.506374,8.426393,-0.061069,-0.030534,0.000000,-10.403861,-17.255928,139.525970
99597,55.590137,37.671714,2.155522,-1.642488,1.395891,-2.782062,-0.277727,8.163031,-0.076336,-0.030534,0.000000,-10.263785,-17.261505,139.525970
99697,55.590137,37.671714,2.155522,-1.642488,1.395891,-2.796427,0.037110,8.684967,-0.091603,-0.015267,-0.015267,-10.190485,-17.228136,139.524444
99798,55.590137,37.671714,2.155522,-1.642488,1.395891,-2.806004,-0.452504,8.704121,-0.061069,-0.061069,-0.015267,-10.177513,-17.134893,139.522903
99898,55.590137,37.671714,2.155522,-1.642488,1.395891,-2.838326,0.000000,8.906431,-0.061069,0.015267,-0.015267,-10.037278,-17.098773,139.521377
99998,55.590137,37.671714,2.155522,-1.642488,1.395891,-2.946065,-0.348356,8.923191,-0.045802,0.030534,-0.015267,-9.952084,-17.152893,139.519851
100098,55.590137,37.671714,2.155522,-1.642488,1.395891,-2.839523,0.071826,8.802283,-0.076336,-0.030534,-0.030534,-9.877603,-17.196336,139.516799
100198,55.590137,37.671714,2.155522,-1.642488,1.395891,-2.740164,-0.292093,8.809466,-0.091603,-0.045802,-0.030534,-9.930110,-17.101757,139.513748
100298,55.590137,37.671714,2.155522,-1.642488,1.395891,-2.989161,-0.245406,9.157822,-0.061069,0.000000,-0.015267,-9.835837,-17.102621,139.512222
100398,55.590137,37.671714,2.155522,-1.642488,1.395891,-2.838326,-0.122104,8.432379,-0.061069,0.015267,-0.015267,-9.697516,-17.181301,139.510696
100498,55.590137,37.671714,2.155522,-1.642488,1.395891,-2.946065,-0.154426,8.840590,-0.045802,0.030534,-0.015267,-9.601620,-17.347312,139.509170
100690,55.590137,37.671714,2.155522,-1.642488,1.395891,-2.960430,-0.366313,8.945935,-0.061069,0.015267,0.000000,-9.598657,-17.505022,139.509170
100790,55.590137,37.671714,2.155522,-1.642488,1.395891,-2.834735,-0.322020,8.783129,-0.061069,-0.030534,0.000000,-9.654532,-17.472831,139.509170
100890,55.590137,37.671714,2.155522,-1.642488,1.395891,-2.970007,-0.561440,8.913614,-0.045802,-0.015267,0.000000,-9.626597,-17.457860,139.509170
100990,55.590137,37.671714,2.155522,-1.642488,1.395891,-2.985569,-0.338780,8.724472,-0.061069,0.015267,0.000000,-9.589249,-17.518972,139.509170
101090,55.590137,37.671714,2.155522,-1.642488,1.395891,-2.814384,-0.459687,8.412028,-0.076336,-0.045802,0.000000,-9.677227,-17.504915,139.509170
101190,55.590137,37.671714,2.155522,-1.642488,1.395891,-2.705448,0.056264,8.305486,-0.198473,-0.061069,-0.030534,-9.995541,-17.369623,139.506118
101291,55.590137,37.671714,2.155522,-1.642488,1.395891,-2.646790,-0.529119,9.204509,-0.076336,0.030534,0.000000,-10.331784,-17.018136,139.506118
101391,55.590137,37.671714,2.155522,-1.642488,1.395891,-2.852691,-0.714669,9.125500,-0.045802,-0.015267,0.000000,-10.295608,-17.085432,139.506118
101491,55.590137,37.671714,2.155522,-1.642488,1.395891,-2.841917,0.083797,8.992622,-0.076336,0.015267,-0.015267,-10.188033,-17.237985,139.504592
101591,55.590137,37.671714,2.155522,-1.642488,1.395891,-2.923320,-0.214281,8.908825,-0.106870,0.000000,0.015267,-10.255125,-17.554817,139.506118
101691,55.590137,37.671714,2.155522,-1.642488,1.395891,-2.913743,-1.431733,9.312248,-0.091603,-0.061069,0.000000,-10.408326,-17.582561,139.506118
101791,55.590137,37.671714,2.155522,-1.642488,1.395891,-2.873042,-0.161609,8.524556,-0.091603,0.000000,-0.015267,-10.323510,-17.565380,139.504592
101891,55.590137,37.671714,2.155522,-1.642488,1.395891,-3.074155,-0.652420,10.838552,0.045802,0.030534,0.030534,-10.138093,-17.476009,139.507644
101991,55.590137,37.671714,2.155522,-1.642488,1.395891,-2.893393,-0.433350,7.015011,-0.076336,0.045802,-0.015267,-9.821868,-18.037117,139.506118
102091,55.590137,37.671714,2.155522,-1.642488,1.395891,-3.560178,0.282516,9.457098,-0.015267,0.106870,0.000000,-9.435962,-18.189628,139.506118
102191,55.590137,37.671714,2.155522,-1.642488,1.395891,-3.045424,0.040701,9.053674,-0.091603,-0.122137,0.000000,-9.340808,-18.111824,139.506118
102291,55.590137,37.671714,2.155522,-1.642488,1.395891,-2.645593,-0.482432,7.504625,-0.106870,0.106870,-0.015267,-9.570879,-18.157423,139.504592
102391,55.590137,37.671714,2.155522,-1.642488,1.395891,-2.766500,-0.399832,6.782773,-0.061069,-0.259542,0.030534,-10.109943,-17.703968,139.507644
102491,55.590137,37.671714,2.155522,-1.642488,1.395891,nan,nan,nan,nan,nan,nan,nan,nan,139.507644
102591,55.590137,37.671714,2.155522,-1.642488,1.395891,nan,nan,nan,nan,nan,nan,nan,nan,139.507644
102694,55.590141,37.671318,6.554022,1.157241,-6.451046,-1.877054,0.050278,4.219780,-0.244275,-0.137405,0.152672,-9.949393,-18.585882,139.553909
102794,55.590141,37.671318,6.554022,1.157241,-6.451046,-2.248155,-0.897826,11.195287,-0.076336,0.335878,-0.045802,-9.825537,-17.280080,139.549331
102894,55.590141,37.671318,6.554022,1.157241,-6.451046,-3.041833,-0.634463,7.979874,-0.030534,-0.122137,0.000000,-9.958665,-17.844869,139.549331
102994,55.590141,37.671318,6.554022,1.157241,-6.451046,-2.746149,0.187945,9.197326,0.091603,-0.564885,0.183206,-9.696760,-17.468313,139.567657
103094,55.590141,37.671318,6.554022,1.157241,-6.451046,-3.770868,0.108936,9.424776,-0.244275,0.351145,-0.167939,-9.453495,-17.938850,139.550857
103194,55.590141,37.671318,6.554022,1.157241,-6.451046,-2.322376,-0.592565,7.067683,-0.106870,0.000000,0.076336,-9.764551,-17.934503,139.558486
103294,55.590141,37.671318,6.554022,1.157241,-6.451046,-2.868254,-0.262165,8.972271,-0.045802,-0.106870,0.015267,-9.339766,-17.316146,139.560012
103394,55.590141,37.671318,6.554022,1.157241,-6.451046,-2.856283,-0.084994,8.836999,-0.061069,0.000000,0.000000,-9.298907,-17.364933,139.560012
103494,55.590141,37.671318,6.554022,1.157241,-6.451046,-2.677915,-0.225055,8.956709,-0.106870,0.061069,-0.015267,-9.279089,-17.376058,139.558486
103595,55.590141,37.671318,6.554022,1.157241,-6.451046,-2.867057,-0.254982,8.668208,-0.076336,0.045802,0.000000,-9.332627,-17.520154,139.558486
103695,55.590141,37.671318,6.554022,1.157241,-6.451046,-2.943671,-0.413000,8.755596,-0.076336,-0.015267,0.000000,-9.379592,-17.588697,139.558486
103795,55.590141,37.671318,6.554022,1.157241,-6.451046,-2.862268,-0.135272,9.078813,-0.030534,-0.106870,0.030534,-9.318544,-17.438907,139.561538
103895,55.590141,37.671318,6.554022,1.157241,-6.451046,-2.717419,-0.539892,8.746019,-0.091603,0.061069,0.000000,-9.440291,-17.539863,139.561538
103995,55.590141,37.671318,6.554022,1.157241,-6.451046,-2.683900,-0.096965,8.901642,-0.076336,0.015267,0.000000,-9.426062,-17.412778,139.561538
104095,55.590141,37.671318,6.554022,1.157241,-6.451046,-2.887407,-0.526724,8.683770,-0.091603,0.000000,0.000000,-9.610989,-17.450944,139.561538
104195,55.590141,37.671318,6.554022,1.157241,-6.451046,-2.900575,-0.386664,8.507796,-0.061069,-0.091603,0.000000,-9.692168,-17.442529,139.561538
104295,55.590141,37.671318,6.554022,1.157241,-6.451046,-2.752135,-0.384269,8.870518,-0.091603,0.076336,0.000000,-9.743803,-17.393596,139.561538
104395,55.590141,37.671318,6.554022,1.157241,-6.451046,-2.742558,-0.124498,8.962695,-0.061069,-0.015267,0.000000,-9.716565,-17.275228,139.561538
104495,55.590141,37.671318,6.554022,1.157241,-6.451046,-2.691083,-0.341174,9.482236,-0.106870,0.106870,0.000000,-9.785090,-17.185882,139.561538
104682,55.590141,37.671318,6.554022,1.157241,-6.451046,-2.594118,-0.404620,8.234857,-0.061069,-0.076336,0.000000,-9.765563,-17.571540,139.561538
104782,55.590141,37.671318,6.554022,1.157241,-6.451046,-2.703054,-0.004788,8.688558,-0.061069,-0.061069,0.000000,-9.618317,-17.552820,139.561538
104882,55.590141,37.671318,6.554022,1.157241,-6.451046,-2.808399,-0.161609,8.429985,-0.091603,-0.045802,-0.030534,-9.586263,-17.485729,139.558486
104982,55.590141,37.671318,6.554022,1.157241,-6.451046,-2.864662,-0.207098,8.765172,-0.045802,-0.076336,-0.015267,-9.555154,-17.112520,139.556961
105082,55.590141,37.671318,6.554022,1.157241,-6.451046,-2.570175,-0.245406,8.379707,-0.061069,0.000000,-0.015267,-9.610828,-17.138273,139.555435
105182,55.590141,37.671318,6.554022,1.157241,-6.451046,-2.595315,-0.310049,9.166202,-0.015267,-0.076336,0.000000,-9.473162,-17.080825,139.555435
105282,55.590141,37.671318,6.554022,1.157241,-6.451046,-2.987964,-0.125696,8.874109,-0.061069,-0.061069,-0.015267,-9.431129,-17.218244,139.553909
105382,55.590141,37.671318,6.554022,1.157241,-6.451046,-2.562993,-0.228646,8.795101,-0.030534,-0.152672,0.000000,-9.345296,-17.010137,139.553909
105482,55.590141,37.671318,6.554022,1.157241,-6.451046,-2.579752,-0.363919,8.792706,-0.061069,-0.015267,0.000000,-9.283026,-16.978437,139.553909
105582,55.590141,37.671318,6.554022,1.157241,-6.451046,-2.598906,-0.034716,8.796298,-0.076336,0.000000,-0.015267,-9.178295,-16.911085,139.552383
105682,55.590141,37.671318,6.554022,1.157241,-6.451046,-2.528277,-0.226252,8.716092,-0.045802,-0.076336,0.000000,-9.171367,-16.821874,139.552383
105782,55.590141,37.671318,6.554022,1.157241,-6.451046,-2.561796,-0.172383,8.544906,-0.076336,0.015267,-0.015267,-9.139679,-16.733535,139.550857
105882,55.590141,37.671318,6.554022,1.157241,-6.451046,-2.624045,-0.262165,8.684967,-0.076336,0.061069,-0.015267,-9.105287,-16.573587,139.549331
105982,55.590141,37.671318,6.554022,1.157241,-6.451046,-2.622848,-0.022745,8.774749,-0.045802,-0.091603,-0.015267,-8.987786,-16.384250,139.547805
106082,55.590141,37.671318,6.554022,1.157241,-6.451046,-2.657564,-0.080206,8.609550,-0.076336,-0.030534,-0.030534,-8.927836,-16.352090,139.544754
106182,55.590141,37.671318,6.554022,1.157241,-6.451046,-2.645593,0.047884,8.846576,-0.061069,0.000000,-0.015267,-8.870364,-16.300542,139.543228
106283,55.590141,37.671318,6.554022,1.157241,-6.451046,-2.552219,-0.081403,8.825028,-0.076336,0.030534,-0.015267,-8.819114,-16.345617,139.541687
106383,55.590141,37.671318,6.554022,1.157241,-6.451046,-2.522291,0.068235,8.602367,-0.061069,-0.061069,-0.015267,-8.758620,-16.284950,139.540161
106483,55.590141,37.671318,6.554022,1.157241,-6.451046,-2.454057,-0.007183,8.996213,-0.076336,-0.030534,-0.030534,-8.847415,-16.102567,139.537109
106583,55.590175,37.670917,6.554022,1.157241,-6.451046,-2.511518,-0.017957,8.939949,-0.106870,0.045802,-0.045802,-8.967874,-15.896274,139.532531
106705,55.590175,37.670917,6.554022,1.157241,-6.451046,-2.519897,-0.323217,8.916007,-0.076336,0.030534,-0.015267,-9.034546,-15.728759,139.530670
106805,55.590175,37.670917,6.554022,1.157241,-6.451046,-2.486378,-0.058658,8.947133,-0.106870,0.091603,-0.030534,-8.933426,-15.752410,139.527618
106905,55.590175,37.670917,6.554022,1.157241,-6.451046,-2.528277,-0.093374,8.860941,-0.045802,-0.076336,-0.015267,-8.964028,-15.855664,139.526092
107005,55.590175,37.670917,6.554022,1.157241,-6.451046,-2.558204,-0.337582,9.223663,-0.076336,0.030534,-0.015267,-9.029050,-15.884024,139.524566
107105,55.590175,37.670917,6.554022,1.157241,-6.451046,-2.534262,-0.312443,9.378088,-0.076336,0.045802,-0.015267,-9.004395,-15.940400,139.523040
107205,55.590175,37.670917,6.554022,1.157241,-6.451046,-2.529474,-0.201113,8.386889,-0.045802,-0.091603,0.000000,-9.031520,-16.073143,139.523040
107305,55.590175,37.670917,6.554022,1.157241,-6.451046,-2.588132,-0.426168,8.707712,-0.091603,0.030534,-0.030534,-8.961283,-16.007053,139.519989
107405,55.590175,37.670917,6.554022,1.157241,-6.451046,-2.489970,-0.132878,9.120712,-0.061069,-0.030534,0.000000,-8.940995,-15.744352,139.519989
107505,55.590175,37.670917,6.554022,1.157241,-6.451046,-2.499547,-0.344765,8.629900,-0.076336,-0.061069,0.000000,-9.084560,-15.744774,139.519989
107606,55.590175,37.670917,6.554022,1.157241,-6.451046,-2.568978,-0.204704,8.835802,-0.076336,-0.015267,-0.015267,-9.109763,-15.628252,139.518447
107706,55.590175,37.670917,6.554022,1.157241,-6.451046,-2.591723,-0.347159,8.977060,-0.045802,-0.061069,-0.015267,-9.206927,-15.627427,139.516921
107806,55.590175,37.670917,6.554022,1.157241,-6.451046,-2.477999,-0.146046,9.192538,-0.061069,0.000000,-0.015267,-9.121969,-15.604912,139.515396
107906,55.590175,37.670917,6.554022,1.157241,-6.451046,-2.600103,-0.354342,8.845378,-0.106870,0.091603,-0.015267,-9.194511,-15.718043,139.513870
108006,55.590175,37.670917,6.554022,1.157241,-6.451046,-2.358289,0.010774,8.689756,-0.045802,-0.076336,0.000000,-9.126049,-15.614290,139.513870
108106,55.590175,37.670917,6.554022,1.157241,-6.451046,-2.766500,-0.385467,8.773552,-0.061069,0.015267,-0.015267,-9.260625,-15.684639,139.512344
108206,55.590175,37.670917,6.554022,1.157241,-6.451046,-2.494758,-0.130484,9.148245,-0.061069,-0.061069,0.000000,-9.201146,-15.526855,139.512344
108306,55.590175,37.670917,6.554022,1.157241,-6.451046,-2.730587,-0.223858,8.722077,-0.061069,-0.015267,-0.015267,-9.309253,-15.713198,139.510818
108406,55.590175,37.670917,6.554022,1.157241,-6.451046,-2.636016,-0.457293,8.832211,-0.076336,0.000000,-0.015267,-9.371785,-15.799199,139.509292
108506,55.590175,37.670917,6.554022,1.157241,-6.451046,-2.846706,-0.369904,8.525753,-0.091603,0.030534,-0.015267,-9.326915,-16.352453,139.507766
108745,55.590175,37.670917,6.554022,1.157241,-6.451046,-2.904167,-0.369904,8.426393,-0.076336,-0.030534,0.000000,-9.363832,-16.391944,139.507766
108845,55.590175,37.670917,6.554022,1.157241,-6.451046,-2.732981,-0.140061,9.336190,-0.076336,0.030534,-0.015267,-9.228863,-16.255889,139.506240
108945,55.590175,37.670917,6.554022,1.157241,-6.451046,-2.803610,-0.349553,8.769961,-0.061069,-0.030534,-0.015267,-9.254476,-16.374227,139.504714
109045,55.590175,37.670917,6.554022,1.157241,-6.451046,-2.670732,-0.396240,8.225280,-0.030534,-0.122137,0.015267,-9.263996,-16.421077,139.506240
109145,55.590175,37.670917,6.554022,1.157241,-6.451046,-2.625242,-0.007183,9.160216,0.030534,-0.167939,0.045802,-9.005572,-16.160776,139.510818
109245,55.590175,37.670917,6.554022,1.157241,-6.451046,-2.754529,-0.105345,8.887277,-0.183206,0.290076,-0.137405,-9.041064,-16.403781,139.497085
109345,55.590175,37.670917,6.554022,1.157241,-6.451046,-2.968810,0.056264,8.781932,-0.061069,-0.091603,-0.015267,-9.034062,-16.328060,139.495559
109445,55.590175,37.670917,6.554022,1.157241,-6.451046,-2.694674,-0.648829,9.135077,-0.045802,-0.076336,0.030534,-9.158802,-16.202676,139.498611
109545,55.590175,37.670917,6.554022,1.157241,-6.451046,-2.608483,-0.149638,9.138669,-0.091603,0.122137,-0.015267,-9.083727,-16.273870,139.497085
109645,55.590175,37.670917,6.554022,1.157241,-6.451046,-2.817975,-0.282516,8.771159,-0.061069,-0.015267,0.000000,-9.234853,-16.542072,139.497085
109745,55.590175,37.670917,6.554022,1.157241,-6.451046,-2.667141,-0.434548,9.149442,-0.091603,0.015267,0.000000,-9.282745,-16.487869,139.497085
109845,55.590175,37.670917,6.554022,1.157241,-6.451046,-2.785654,-0.373495,8.507796,-0.076336,-0.015267,0.000000,-9.418977,-16.737829,139.497085
109945,55.590175,37.670917,6.554022,1.157241,-6.451046,-2.831144,-0.240617,8.623915,-0.061069,-0.076336,0.000000,-9.417581,-16.792530,139.497085
110045,55.590175,37.670917,6.554022,1.157241,-6.451046,-2.850297,-0.460884,8.999805,-0.045802,-0.045802,0.000000,-9.447637,-16.801864,139.497085
110145,55.590175,37.670917,6.554022,1.157241,-6.451046,-2.767697,-0.305261,8.912416,-0.091603,0.045802,0.000000,-9.437654,-16.909044,139.497085
110245,55.590175,37.670917,6.554022,1.157241,-6.451046,-2.893393,-0.292093,8.596382,-0.091603,0.076336,0.000000,-9.473433,-17.057582,139.497085
110345,55.590175,37.670917,6.554022,1.157241,-6.451046,-2.780865,-0.335188,8.742428,-0.076336,-0.030534,0.000000,-9.470850,-17.053733,139.497085
110445,55.590175,37.670917,6.554022,1.157241,-6.451046,-2.804807,-0.380678,8.761582,-0.076336,0.015267,0.000000,-9.529956,-17.053461,139.497085
110545,55.590175,37.670917,6.554022,1.157241,-6.451046,nan,nan,nan,nan,nan,nan,nan,nan,139.497085
110654,55.590244,37.670501,6.554022,1.157241,-6.451046,nan,nan,nan,nan,nan,nan,nan,nan,139.497085
110754,55.590244,37.670501,6.554022,1.157241,-6.451046,-2.752135,-0.033519,8.850167,-0.045802,-0.045802,0.015267,-9.532770,-16.876276,139.501800
110854,55.590244,37.670501,6.554022,1.157241,-6.451046,-2.747346,-0.347159,8.589200,-0.091603,0.045802,-0.015267,-9.607729,-17.013662,139.500274
110954,55.590244,37.670501,6.554022,1.157241,-6.451046,-2.726996,-0.014365,8.844182,-0.122137,0.091603,-0.030534,-9.582700,-16.954477,139.497222
111054,55.590244,37.670501,6.554022,1.157241,-6.451046,-2.992752,-0.390255,8.555680,-0.106870,0.000000,-0.015267,-9.764672,-16.940038,139.495697
111154,55.590244,37.670501,6.554022,1.157241,-6.451046,-2.639607,-0.398635,8.804677,-0.091603,0.045802,-0.015267,-9.844202,-16.802942,139.494171
111254,55.590244,37.670501,6.554022,1.157241,-6.451046,-2.762909,-0.676362,8.757990,-0.045802,0.015267,0.015267,-9.948159,-16.997972,139.495697
111354,55.590244,37.670501,6.554022,1.157241,-6.451046,-2.811990,-0.457293,8.598776,-0.091603,0.030534,0.000000,-9.985193,-17.200139,139.495697
111454,55.590244,37.670501,6.554022,1.157241,-6.451046,-2.890999,-0.307655,8.324640,-0.061069,-0.091603,0.000000,-10.080473,-17.292842,139.495697
111554,55.590244,37.670501,6.554022,1.157241,-6.451046,-2.867057,-0.492008,8.670602,-0.091603,-0.045802,-0.015267,-10.224492,-17.126502,139.494171
111654,55.590244,37.670501,6.554022,1.157241,-6.451046,-2.856283,-0.470461,9.009382,-0.091603,0.061069,-0.015267,-10.298396,-17.040409,139.492645
111754,55.590244,37.670501,6.554022,1.157241,-6.451046,-2.627636,-0.367510,9.218874,-0.061069,0.045802,0.015267,-10.203353,-16.912738,139.494171
111854,55.590244,37.670501,6.554022,1.157241,-6.451046,-2.749741,-0.383072,8.680179,-0.061069,0.030534,0.000000,-10.104394,-17.089836,139.494171
111954,55.590244,37.670501,6.554022,1.157241,-6.451046,-2.628834,-0.071826,8.665814,-0.091603,0.030534,-0.015267,-9.878570,-17.028793,139.492645
112054,55.590244,37.670501,6.554022,1.157241,-6.451046,-2.697068,-0.201113,8.708909,-0.091603,0.030534,-0.015267,-9.823134,-17.005392,139.491119
112154,55.590244,37.670501,6.554022,1.157241,-6.451046,-2.549825,-0.118513,9.113530,-0.061069,-0.076336,-0.015267,-9.659874,-16.793367,139.489593
112254,55.590244,37.670501,6.554022,1.157241,-6.451046,-2.668338,-0.067038,8.680179,-0.030534,-0.030534,-0.015267,-9.536340,-16.810647,139.488067
112354,55.590244,37.670501,6.554022,1.157241,-6.451046,-2.847903,0.118513,8.757990,-0.061069,-0.015267,-0.030534,-9.338855,-16.810298,139.485015
112454,55.590244,37.670501,6.554022,1.157241,-6.451046,-2.594118,0.057461,8.602367,-0.091603,0.015267,-0.030534,-9.285509,-16.753915,139.481964
112555,55.590244,37.670501,6.554022,1.157241,-6.451046,nan,nan,nan,nan,nan,nan,nan,nan,139.481964
112659,55.590270,37.670299,6.554022,1.157241,-6.451046,-2.703054,-0.028730,8.907628,-0.061069,-0.030534,-0.030534,-9.170885,-16.568668,139.475708
112759,55.590270,37.670299,6.554022,1.157241,-6.451046,-2.756923,-0.088585,8.910022,-0.045802,-0.045802,-0.030534,-9.085918,-16.585992,139.472656
112859,55.590270,37.670299,6.554022,1.157241,-6.451046,-2.645593,-0.099359,9.076419,-0.061069,0.015267,-0.030534,-8.889252,-16.648925,139.469604
112959,55.590270,37.670299,6.554022,1.157241,-6.451046,-2.655170,0.049081,8.886080,-0.030534,0.000000,-0.015267,-8.717932,-16.740055,139.468078
113059,55.590270,37.670299,6.554022,1.157241,-6.451046,-2.746149,0.007183,8.494628,-0.061069,0.000000,-0.030534,-8.636266,-16.868846,139.465026
113159,55.590270,37.670299,6.554022,1.157241,-6.451046,-2.598906,0.185551,9.095573,-0.061069,0.015267,-0.030534,-8.454146,-16.617940,139.461975
113259,55.590270,37.670299,6.554022,1.157241,-6.451046,-2.594118,-0.165200,8.992622,-0.061069,-0.015267,-0.030534,-8.443776,-16.439649,139.458923
113359,55.590270,37.670299,6.554022,1.157241,-6.451046,-2.513912,-0.011971,8.801086,-0.076336,0.015267,-0.030534,-8.380488,-16.334051,139.455871
113459,55.590270,37.670299,6.554022,1.157241,-6.451046,-2.590526,-0.167594,8.696938,-0.061069,-0.015267,-0.015267,-8.398339,-16.291444,139.454345
113559,55.590270,37.670299,6.554022,1.157241,-6.451046,-2.582147,-0.055067,8.713698,-0.061069,-0.030534,-0.015267,-8.412505,-16.282060,139.452819
113659,55.590270,37.670299,6.554022,1.157241,-6.451046,-2.551022,-0.209493,8.948329,-0.045802,-0.045802,-0.015267,-8.504130,-16.171916,139.451293
113759,55.590270,37.670299,6.554022,1.157241,-6.451046,-2.463634,-0.269348,8.990228,-0.091603,0.030534,-0.015267,-8.591786,-16.044866,139.449768
113859,55.590270,37.670299,6.554022,1.157241,-6.451046,-2.622848,-0.296881,8.905234,-0.076336,0.000000,-0.015267,-8.704323,-16.047430,139.448242
113959,55.590270,37.670299,6.554022,1.157241,-6.451046,-2.562993,-0.404620,8.792706,-0.045802,-0.030534,0.000000,-8.761408,-16.074281,139.448242
114059,55.590270,37.670299,6.554022,1.157241,-6.451046,-2.507926,-0.322020,8.609550,-0.045802,-0.091603,0.015267,-8.741466,-16.160705,139.449768
114159,55.590270,37.670299,6.554022,1.157241,-6.451046,-2.547430,-0.278924,8.925584,-0.061069,0.000000,0.000000,-8.734545,-16.180070,139.449768
114259,55.590270,37.670299,6.554022,1.157241,-6.451046,-2.551022,-0.179565,9.115923,-0.045802,-0.061069,0.000000,-8.698883,-16.054540,139.449768
114359,55.590270,37.670299,6.554022,1.157241,-6.451046,-2.507926,-0.322020,8.848970,-0.061069,-0.015267,0.000000,-8.699132,-16.043661,139.449768
114459,55.590270,37.670299,6.554022,1.157241,-6.451046,-2.474407,-0.199916,8.762779,-0.076336,-0.030534,0.000000,-8.749191,-15.996195,139.449768
114560,55.590270,37.670299,6.554022,1.157241,-6.451046,-2.439692,-0.308852,8.906431,-0.091603,0.030534,-0.015267,-8.760869,-15.877245,139.448226
114707,55.590301,37.670093,6.554022,1.157241,-6.451046,-2.409764,-0.262165,8.825028,-0.076336,-0.061069,0.000000,-8.836545,-15.729570,139.448226
114807,55.590301,37.670093,6.554022,1.157241,-6.451046,-2.619257,-0.108936,9.271547,-0.030534,-0.091603,0.015267,-8.820883,-15.551320,139.449752
114907,55.590301,37.670093,6.554022,1.157241,-6.451046,-2.516306,0.257377,10.332178,0.045802,-0.167939,0.061069,-8.420142,-14.734479,139.455856
115007,55.590301,37.670093,6.554022,1.157241,-6.451046,-2.064999,-0.635661,7.961918,-0.061069,0.076336,0.015267,-9.064902,-15.669434,139.457382
115107,55.590301,37.670093,6.554022,1.157241,-6.451046,-2.687491,-0.280122,9.979033,-0.015267,-0.167939,0.061069,-8.422311,-14.675316,139.463485
115207,55.590301,37.670093,6.554022,1.157241,-6.451046,-2.427721,0.084994,8.668208,-0.061069,-0.015267,-0.015267,-8.742801,-15.228219,139.461959
115307,55.590301,37.670093,6.554022,1.157241,-6.451046,-2.090138,-0.064643,8.728063,-0.290076,0.610687,-0.244275,-9.077708,-15.815605,139.437530
115407,55.590301,37.670093,6.554022,1.157241,-6.451046,-2.597709,-0.986411,9.695321,0.045802,-0.152672,0.030534,-8.929478,-15.247566,139.440582
115507,55.590301,37.670093,6.554022,1.157241,-6.451046,-2.661155,-0.742202,9.142260,0.015267,-0.152672,0.015267,-8.908063,-15.413726,139.442108
115607,55.590301,37.670093,6.554022,1.157241,-6.451046,-2.509123,0.009577,8.451533,-0.091603,0.015267,-0.015267,-8.659523,-15.386822,139.440582
115707,55.590301,37.670093,6.554022,1.157241,-6.451046,-2.366668,-0.337582,8.811860,-0.061069,-0.015267,0.000000,-8.807011,-15.329704,139.440582
115807,55.590301,37.670093,6.554022,1.157241,-6.451046,-2.460042,-0.269348,9.185356,-0.106870,0.091603,-0.015267,-8.827688,-15.197181,139.439056
115907,55.590301,37.670093,6.554022,1.157241,-6.451046,-2.461239,-0.174777,8.752005,-0.045802,-0.045802,0.000000,-8.911701,-15.076162,139.439056
116007,55.590301,37.670093,6.554022,1.157241,-6.451046,-2.355895,-0.129287,8.803480,-0.091603,0.045802,-0.015267,-8.882417,-15.000859,139.437530
116107,55.590301,37.670093,6.554022,1.157241,-6.451046,-2.463634,-0.142455,8.923191,-0.076336,0.000000,-0.015267,-8.928535,-14.991440,139.436004
116207,55.590301,37.670093,6.554022,1.157241,-6.451046,-2.420538,-0.178368,9.129092,-0.091603,0.030534,-0.015267,-9.017277,-14.891648,139.434478
116307,55.590301,37.670093,6.554022,1.157241,-6.451046,-2.280477,-0.268151,8.863335,-0.106870,0.030534,-0.015267,-9.118194,-14.860210,139.432952
116407,55.590301,37.670093,6.554022,1.157241,-6.451046,-2.078167,-0.439336,8.870518,-0.061069,-0.015267,0.000000,-9.254540,-14.730566,139.432952
116507,55.590301,37.670093,6.554022,1.157241,-6.451046,-1.997961,-0.153229,9.163807,-0.076336,-0.015267,-0.015267,-9.310663,-14.551758,139.431427
116694,55.590301,37.670093,6.554022,1.157241,-6.451046,-1.920150,-0.301669,8.839393,-0.076336,-0.045802,0.000000,-9.449316,-14.253090,139.431427
116794,55.590301,37.670093,6.554022,1.157241,-6.451046,-1.807622,-0.428562,9.048886,-0.091603,0.015267,0.000000,-9.486525,-14.018951,139.431427
116894,55.590301,37.670093,6.554022,1.157241,-6.451046,-2.064999,-0.239420,8.983045,-0.045802,-0.076336,0.000000,-9.424422,-13.920710,139.431427
116994,55.590301,37.670093,6.554022,1.157241,-6.451046,-1.851915,-0.387861,8.985440,-0.061069,-0.045802,0.000000,-9.408425,-13.737707,139.431427
117094,55.590301,37.670093,6.554022,1.157241,-6.451046,-1.783680,-0.260968,9.121909,-0.106870,0.106870,0.000000,-9.419816,-13.522903,139.431427
117194,55.590301,37.670093,6.554022,1.157241,-6.451046,-1.564611,-0.111330,9.249999,-0.106870,0.076336,0.000000,-9.363125,-13.206806,139.431427
117294,55.590301,37.670093,6.554022,1.157241,-6.451046,-1.617283,-0.331597,9.224860,-0.076336,0.045802,0.000000,-9.444170,-12.957674,139.431427
117394,55.590301,37.670093,6.554022,1.157241,-6.451046,-1.466449,-0.241814,9.755175,-0.076336,0.045802,0.000000,-9.337645,-12.602726,139.431427
117494,55.590301,37.670093,6.554022,1.157241,-6.451046,-1.516727,-0.494403,9.091981,-0.015267,-0.091603,0.030534,-9.402018,-12.586882,139.434478
117594,55.590301,37.670093,6.554022,1.157241,-6.451046,-1.631648,-0.156820,9.210494,-0.045802,-0.015267,0.000000,-9.268970,-12.475245,139.434478
117694,55.590301,37.670093,6.554022,1.157241,-6.451046,-1.999158,-0.038307,8.526949,-0.381679,0.732824,-0.320611,-9.459467,-12.638226,139.402420
117794,55.590301,37.670093,6.554022,1.157241,-6.451046,-2.756923,-0.575805,7.485472,-0.106870,-0.030534,0.000000,-9.585387,-12.904176,139.402420
117894,55.590301,37.670093,6.554022,1.157241,-6.451046,-2.568978,-0.639252,9.739613,-0.061069,0.015267,0.015267,-9.446862,-12.306989,139.403945
117994,55.590301,37.670093,6.554022,1.157241,-6.451046,-2.252944,-0.401029,8.772356,-0.030534,-0.061069,0.015267,-9.558878,-12.597747,139.405471
118094,55.590301,37.670093,6.554022,1.157241,-6.451046,-1.550246,-0.566229,5.616797,-0.122137,0.045802,0.122137,-10.286321,-13.797762,139.417678
118194,55.590301,37.670093,6.554022,1.157241,-6.451046,-2.159570,-1.313220,8.085220,0.412214,-0.916030,0.381679,-9.837095,-13.137354,139.455841
118294,55.590301,37.670093,6.554022,1.157241,-6.451046,-2.756923,-0.445322,9.662999,-0.076336,0.061069,-0.106870,-9.865909,-13.292062,139.445159
118394,55.590301,37.670093,6.554022,1.157241,-6.451046,-1.814805,-0.587777,9.743205,-0.061069,0.030534,0.015267,-9.923450,-13.094877,139.446685
118494,55.590301,37.670093,6.554022,1.157241,-6.451046,-1.999158,0.117316,9.411607,-0.091603,-0.030534,0.000000,-9.839529,-13.020576,139.446685
118629,55.590301,37.670093,6.554022,1.157241,-6.451046,nan,nan,nan,nan,nan,nan,nan,nan,139.446685
118729,55.590301,37.670093,6.554022,1.157241,-6.451046,-1.997961,-0.465672,8.601170,-0.030534,-0.106870,0.015267,-10.278889,-13.246802,139.450271
118829,55.590301,37.670093,6.554022,1.157241,-6.451046,-1.837550,-0.257377,8.956709,-0.122137,0.122137,0.000000,-10.147273,-13.126708,139.450271
118929,55.590301,37.670093,6.554022,1.157241,-6.451046,-2.064999,-0.284910,9.064448,-0.045802,-0.061069,0.030534,-10.231199,-13.172110,139.453323
119029,55.590301,37.670093,6.554022,1.157241,-6.451046,-2.267309,-0.389058,8.886080,-0.091603,0.015267,0.000000,-10.150984,-13.282428,139.453323
119129,55.590301,37.670093,6.554022,1.157241,-6.451046,-2.232593,-0.280122,8.904037,-0.076336,-0.061069,0.000000,-10.292449,-13.195954,139.453323
119229,55.590301,37.670093,6.554022,1.157241,-6.451046,-2.303222,-0.606930,8.195353,-0.091603,-0.015267,-0.015267,-10.490559,-13.268846,139.451797
119329,55.590301,37.670093,6.554022,1.157241,-6.451046,-2.384625,-0.229843,9.356541,-0.122137,0.076336,-0.015267,-10.317931,-12.941501,139.450271
119429,55.590301,37.670093,6.554022,1.157241,-6.451046,-2.185906,-0.402226,8.255208,-0.106870,-0.015267,-0.030534,-10.582981,-13.208041,139.447219
119529,55.590301,37.670093,6.554022,1.157241,-6.451046,-2.169147,-0.258574,9.477448,-0.106870,0.030534,-0.015267,-10.353080,-12.879840,139.445693
119629,55.590301,37.670093,6.554022,1.157241,-6.451046,-2.438494,-0.263362,9.514558,-0.061069,0.122137,0.000000,-10.385460,-13.083031,139.445693
119729,55.590301,37.670093,6.554022,1.157241,-6.451046,-2.127248,-0.691924,8.385692,-0.045802,0.030534,-0.015267,-10.404768,-13.540589,139.444168
119829,55.590301,37.670093,6.554022,1.157241,-6.451046,-2.625242,-0.328006,9.483433,0.076336,-0.198473,0.045802,-10.020897,-13.573059,139.448745
119929,55.590301,37.670093,6.554022,1.157241,-6.451046,-2.280477,0.001197,8.579622,-0.091603,0.076336,-0.030534,-9.888606,-13.794038,139.445693
120029,55.590301,37.670093,6.554022,1.157241,-6.451046,-2.457648,-0.331597,8.875307,-0.030534,-0.091603,0.015267,-9.871931,-13.928853,139.447219
120129,55.590301,37.670093,6.554022,1.157241,-6.451046,-2.243367,-0.553061,8.773552,-0.015267,-0.213740,0.015267,-9.954048,-13.929587,139.448745
120229,55.590301,37.670093,6.554022,1.157241,-6.451046,-2.594118,-0.318429,8.546103,-0.091603,0.015267,-0.045802,-9.817143,-14.064915,139.444168
120329,55.590301,37.670093,6.554022,1.157241,-6.451046,-2.759317,-0.129287,9.044097,-0.045802,-0.091603,0.000000,-9.598276,-14.074595,139.444168
120429,55.590301,37.670093,6.554022,1.157241,-6.451046,-3.130419,-0.027533,8.846576,-0.076336,-0.045802,0.000000,-9.598404,-14.593381,139.444168
120529,55.590301,37.670093,6.554022,1.157241,-6.451046,nan,nan,nan,nan,nan,nan,nan,nan,139.444168
120643,55.590396,37.669528,6.554022,1.157241,-6.451046,-3.265691,-0.483629,8.571243,-0.076336,-0.030534,-0.015267,-9.806823,-15.610045,139.440902
120743,55.590396,37.669528,6.554022,1.157241,-6.451046,-3.251326,-0.258574,8.651449,-0.045802,-0.045802,-0.015267,-9.745075,-15.881781,139.439376
120843,55.590396,37.669528,6.554022,1.157241,-6.451046,-3.172317,0.096965,8.860941,-0.061069,-0.045802,0.000000,-9.489768,-16.019752,139.439376
120943,55.590396,37.669528,6.554022,1.157241,-6.451046,-3.092112,-0.110133,8.790312,-0.106870,0.000000,-0.030534,-9.569831,-16.188596,139.436325
121043,55.590396,37.669528,6.554022,1.157241,-6.451046,-3.105280,-0.068235,8.890869,-0.061069,-0.015267,-0.015267,-9.587035,-16.350469,139.434799
121143,55.590396,37.669528,6.554022,1.157241,-6.451046,-3.034651,-0.578200,8.398860,-0.076336,0.045802,-0.045802,-9.749645,-16.529403,139.430221
121243,55.590396,37.669528,6.554022,1.157241,-6.451046,-2.934094,0.089783,8.834605,-0.045802,-0.015267,-0.030534,-9.521496,-16.597133,139.427169
121344,55.590396,37.669528,6.554022,1.157241,-6.451046,-3.130419,-0.135272,8.888474,-0.122137,0.000000,-0.045802,-9.536341,-16.758094,139.422546
121444,55.590396,37.669528,6.554022,1.157241,-6.451046,-3.268085,-0.179565,8.456321,-0.045802,-0.106870,-0.030534,-9.731766,-16.974384,139.419494
121544,55.590396,37.669528,6.554022,1.157241,-6.451046,-2.998738,-0.549469,8.687361,-0.061069,0.000000,-0.030534,-9.905749,-16.871122,139.416442
121644,55.590396,37.669528,6.554022,1.157241,-6.451046,-3.047819,-0.333991,8.969877,-0.045802,-0.030534,-0.015267,-9.880023,-16.981111,139.414916
121744,55.590396,37.669528,6.554022,1.157241,-6.451046,-2.975993,-0.276530,8.893262,-0.122137,0.061069,-0.045802,-9.843013,-17.115776,139.410339
121844,55.590396,37.669528,6.554022,1.157241,-6.451046,-3.290830,-0.422577,8.380904,-0.030534,-0.106870,0.000000,-10.024668,-17.294929,139.410339
121944,55.590396,37.669528,6.554022,1.157241,-6.451046,-2.942474,-0.600945,8.747217,-0.091603,0.076336,-0.015267,-10.143897,-17.331197,139.408813
122044,55.590396,37.669528,6.554022,1.157241,-6.451046,-3.123236,-0.527921,8.608353,-0.030534,-0.045802,0.000000,-10.101913,-17.483469,139.408813
122144,55.590396,37.669528,6.554022,1.157241,-6.451046,-3.034651,-0.252588,9.036914,-0.152672,0.152672,-0.045802,-9.921762,-17.545328,139.404235
122244,55.590396,37.669528,6.554022,1.157241,-6.451046,-2.858677,-0.375890,8.696938,-0.061069,-0.015267,0.000000,-10.003937,-17.659776,139.404235
122344,55.590396,37.669528,6.554022,1.157241,-6.451046,-3.038242,-0.653617,8.155849,-0.091603,-0.045802,-0.030534,-10.169622,-17.935749,139.401184
122444,55.590396,37.669528,6.554022,1.157241,-6.451046,-3.104083,-0.317232,8.857350,-0.030534,-0.030534,0.015267,-10.136987,-17.919916,139.402709
122547,55.590396,37.669528,6.554022,1.157241,-6.451046,nan,nan,nan,nan,nan,nan,nan,nan,139.402709
122653,55.590415,37.669406,6.554022,1.157241,-6.451046,-2.913743,-0.656011,8.444350,-0.061069,-0.030534,0.000000,-10.168385,-17.784759,139.402709
122753,55.590415,37.669406,6.554022,1.157241,-6.451046,-2.622848,-0.381875,8.949526,-0.091603,0.030534,0.000000,-10.153896,-17.597534,280.170013
122853,55.590415,37.669406,6.554022,1.157241,-6.451046,-2.835932,-0.427365,8.718486,-0.091603,0.030534,-0.045802,-10.174201,-17.581001,280.165435
122953,55.590415,37.669406,6.554022,1.157241,-6.451046,-2.780865,-0.451307,8.344990,-0.030534,-0.122137,0.015267,-10.277062,-17.554121,280.166961
123053,55.590415,37.669406,6.554022,1.157241,-6.451046,-2.693477,-0.724246,8.626309,-0.091603,0.076336,-0.045802,-10.220487,-17.620498,280.162384
123153,55.590415,37.669406,6.554022,1.157241,-6.451046,-3.023877,-0.051475,8.565257,-0.076336,-0.015267,0.000000,-10.114242,-17.685691,280.162384
123253,55.590415,37.669406,6.554022,1.157241,-6.451046,-2.809596,-0.260968,8.893262,-0.091603,0.030534,-0.015267,-10.182319,-17.600517,280.160858
123353,55.590415,37.669406,6.554022,1.157241,-6.451046,-2.735375,-0.475249,8.661026,-0.076336,-0.030534,-0.015267,-10.290569,-17.567377,280.159332
123453,55.590415,37.669406,6.554022,1.157241,-6.451046,-2.826355,-0.428562,8.295909,-0.045802,-0.061069,0.000000,-10.402219,-17.562973,280.159332
123553,55.590415,37.669406,6.554022,1.157241,-6.451046,-2.865859,-0.350751,8.828619,-0.076336,-0.015267,-0.015267,-10.271744,-17.464059,280.157806
123653,55.590415,37.669406,6.554022,1.157241,-6.451046,-2.809596,-0.264559,8.605958,-0.091603,-0.045802,-0.015267,-10.284016,-17.374450,280.156280
123753,55.590415,37.669406,6.554022,1.157241,-6.451046,-2.783259,-0.377087,8.825028,-0.076336,-0.045802,-0.015267,-10.300462,-17.203451,280.154754
123853,55.590415,37.669406,6.554022,1.157241,-6.451046,-2.806004,-0.495600,8.910022,-0.076336,-0.015267,-0.015267,-10.460083,-17.223594,280.153228
123953,55.590415,37.669406,6.554022,1.157241,-6.451046,-2.886210,-0.503979,8.541315,-0.061069,0.045802,-0.015267,-10.422894,-17.316095,280.151702
124053,55.590415,37.669406,6.554022,1.157241,-6.451046,-2.929306,-0.325611,9.040506,-0.061069,0.000000,-0.015267,-10.300248,-17.256731,280.150177
124153,55.590415,37.669406,6.554022,1.157241,-6.451046,-2.687491,-0.146046,9.321825,-0.091603,0.061069,-0.015267,-10.148503,-17.257581,280.148651
124253,55.590415,37.669406,6.554022,1.157241,-6.451046,-2.767697,-0.169988,8.683770,-0.076336,0.015267,-0.015267,-10.077107,-17.367437,280.147125
124353,55.590415,37.669406,6.554022,1.157241,-6.451046,-2.875436,-0.263362,8.508994,-0.030534,-0.076336,-0.015267,-9.943117,-17.431316,280.145599
124453,55.590415,37.669406,6.554022,1.157241,-6.451046,-2.759317,0.129287,8.446744,-0.045802,-0.015267,-0.030534,-9.707594,-17.405286,280.142547
124553,55.590415,37.669406,6.554022,1.157241,-6.451046,-2.846706,0.082600,9.361330,-0.061069,0.015267,-0.030534,-9.458556,-17.169422,280.139495
124702,55.590396,37.669273,6.554022,1.157241,-6.451046,-2.791639,0.061052,8.591593,-0.061069,0.000000,-0.045802,-9.273703,-17.082725,280.132659
124802,55.590396,37.669273,6.554022,1.157241,-6.451046,-2.732981,0.128090,8.760384,-0.061069,-0.015267,-0.045802,-9.114386,-16.967552,280.128082
124902,55.590396,37.669273,6.554022,1.157241,-6.451046,-2.892196,0.214281,8.943541,-0.076336,0.015267,-0.061069,-8.957868,-16.875547,280.121978
125002,55.590396,37.669273,6.554022,1.157241,-6.451046,-2.766500,0.150835,8.900445,-0.045802,-0.045802,-0.045802,-8.877822,-16.779582,280.117401
125102,55.590396,37.669273,6.554022,1.157241,-6.451046,-2.807201,0.241814,8.678981,-0.045802,-0.045802,-0.045802,-8.871185,-16.733745,280.112823
125202,55.590396,37.669273,6.554022,1.157241,-6.451046,-2.843115,-0.132878,8.693346,-0.045802,-0.015267,-0.045802,-8.737891,-16.704238,280.108245
125302,55.590396,37.669273,6.554022,1.157241,-6.451046,-2.759317,0.198719,8.984242,-0.061069,0.015267,-0.045802,-8.569993,-16.672849,280.103668
125402,55.590396,37.669273,6.554022,1.157241,-6.451046,-2.670732,0.069432,9.050083,-0.061069,0.000000,-0.045802,-8.423189,-16.715721,280.099090
125502,55.590396,37.669273,6.554022,1.157241,-6.451046,-2.868254,-0.016759,8.695741,-0.091603,0.076336,-0.061069,-8.474674,-16.962871,280.092987
125602,55.590396,37.669273,6.554022,1.157241,-6.451046,-2.758120,-0.093374,8.804677,-0.045802,0.015267,-0.030534,-8.371003,-16.931997,280.089935
125702,55.590396,37.669273,6.554022,1.157241,-6.451046,-2.621651,0.129287,9.220071,-0.045802,-0.015267,-0.030534,-8.227814,-16.752758,280.086883
125802,55.590396,37.669273,6.554022,1.157241,-6.451046,-2.570175,-0.062249,9.052477,-0.091603,0.000000,-0.045802,-8.228253,-16.692125,280.082305
125902,55.590396,37.669273,6.554022,1.157241,-6.451046,-2.558204,-0.256180,8.780735,-0.076336,0.091603,-0.030534,-8.296160,-16.545824,280.079254
126002,55.590396,37.669273,6.554022,1.157241,-6.451046,-2.468422,-0.351948,8.775947,-0.076336,0.015267,-0.030534,-8.396229,-16.384092,280.076202
126102,55.590396,37.669273,6.554022,1.157241,-6.451046,-2.409764,-0.150835,9.018959,-0.061069,-0.015267,-0.030534,-8.362491,-16.202926,280.073150
126202,55.590396,37.669273,6.554022,1.157241,-6.451046,-2.519897,-0.407014,9.301474,-0.076336,0.030534,-0.015267,-8.475825,-16.006837,280.071624
126302,55.590396,37.669273,6.554022,1.157241,-6.451046,-2.243367,-0.568623,8.974665,-0.015267,-0.229008,0.076336,-8.757599,-15.781710,280.079254
126402,55.590396,37.669273,6.554022,1.157241,-6.451046,-2.302025,-0.735020,8.966286,-0.061069,-0.030534,0.000000,-9.099002,-15.934377,280.079254
126502,55.590396,37.669273,6.554022,1.157241,-6.451046,-2.531868,-0.389058,8.872912,-0.076336,-0.030534,0.000000,-9.344895,-15.801430,280.079254
126670,55.590396,37.669273,6.554022,1.157241,-6.451046,-2.899378,-0.720655,8.793903,-0.061069,-0.030534,0.015267,-9.675230,-15.708291,280.081817
126770,55.590396,37.669273,6.554022,1.157241,-6.451046,-2.246958,-0.937330,8.453927,-0.015267,-0.076336,0.045802,-9.866319,-15.684903,280.086395
126870,55.590396,37.669273,6.554022,1.157241,-6.451046,-2.487576,-1.045069,8.801086,-0.091603,0.137405,0.000000,-9.990779,-15.995912,280.086395
126970,55.590396,37.669273,6.554022,1.157241,-6.451046,-2.566584,-0.845153,9.138669,0.030534,-0.152672,0.091603,-9.993332,-15.938944,280.095550
127070,55.590396,37.669273,6.554022,1.157241,-6.451046,-2.615665,-0.849942,8.966286,-0.091603,0.030534,0.015267,-10.168054,-16.120733,280.097076
127170,55.590396,37.669273,6.554022,1.157241,-6.451046,-2.509123,-0.882263,8.908825,-0.061069,-0.030534,0.030534,-10.301640,-15.967144,280.100128
127270,55.590396,37.669273,6.554022,1.157241,-6.451046,-2.382231,-0.739808,8.252814,-0.045802,-0.061069,0.030534,-10.552210,-15.806748,280.103179
127370,55.590396,37.669273,6.554022,1.157241,-6.451046,-2.329558,-0.890643,9.501390,-0.091603,0.091603,0.000000,-10.540188,-15.443689,280.103179
127470,55.590396,37.669273,6.554022,1.157241,-6.451046,-1.878251,-0.390255,8.288726,-0.122137,0.015267,0.015267,-10.804674,-15.571731,280.104705
127570,55.590396,37.669273,6.554022,1.157241,-6.451046,-2.600103,-0.227449,10.454282,-0.076336,0.000000,0.015267,-10.298689,-14.761515,280.106231
127670,55.590396,37.669273,6.554022,1.157241,-6.451046,-1.617283,-0.219069,9.120712,-0.519084,0.961832,-0.366412,-10.725492,-15.452277,280.069580
127770,55.590396,37.669273,6.554022,1.157241,-6.451046,-2.591723,-0.306458,9.229648,-0.045802,-0.106870,0.045802,-10.766237,-15.810841,280.074157
127870,55.590396,37.669273,6.554022,1.157241,-6.451046,-1.926135,-0.397438,7.911640,-0.091603,0.061069,0.000000,-10.960731,-16.390827,280.074157
127970,55.590396,37.669273,6.554022,1.157241,-6.451046,-3.136404,-0.652420,10.377668,0.290076,-0.519084,0.213740,-10.003702,-15.396402,280.095520
128070,55.590396,37.669273,6.554022,1.157241,-6.451046,-2.567781,-0.523133,8.610747,-0.106870,0.183206,-0.045802,-10.515215,-16.715696,280.090942
128171,55.590396,37.669273,6.554022,1.157241,-6.451046,-2.542642,0.165200,9.566034,-0.030534,-0.091603,0.045802,-9.921391,-16.268209,280.095581
128271,55.590396,37.669273,6.554022,1.157241,-6.451046,-2.592921,-0.195127,8.514979,-0.045802,-0.076336,0.015267,-10.375790,-16.673208,280.097106
128371,55.590396,37.669273,6.554022,1.157241,-6.451046,-2.200271,0.009577,9.452309,-0.061069,-0.076336,0.045802,-10.065093,-15.894632,280.101684
128471,55.590396,37.669273,6.554022,1.157241,-6.451046,-2.469619,-0.333991,8.943541,-0.061069,-0.030534,0.000000,-10.297007,-15.928362,280.101684
128571,55.590396,37.669273,6.554022,1.157241,-6.451046,nan,nan,nan,nan,nan,nan,nan,nan,280.101684
128678,55.590473,37.668960,6.554022,1.157241,-6.451046,-2.352303,-0.144849,8.546103,-0.106870,0.061069,-0.030534,-9.940031,-15.585352,280.095367
128778,55.590473,37.668960,6.554022,1.157241,-6.451046,-2.376245,0.093374,8.708909,-0.106870,0.091603,-0.030534,-9.777050,-15.566730,280.092315
128878,55.590473,37.668960,6.554022,1.157241,-6.451046,-2.353500,0.007183,9.070433,-0.045802,-0.030534,-0.015267,-9.663081,-15.535492,280.090789
128978,55.590473,37.668960,6.554022,1.157241,-6.451046,-2.468422,-0.348356,8.847773,-0.061069,-0.030534,-0.015267,-9.601676,-15.520640,280.089263
129078,55.590473,37.668960,6.554022,1.157241,-6.451046,-2.347515,-0.064643,9.120712,-0.030534,-0.091603,-0.015267,-9.398820,-15.400802,280.087738
129178,55.590473,37.668960,6.554022,1.157241,-6.451046,-2.293645,-0.213084,9.093178,-0.045802,0.000000,-0.015267,-9.243551,-15.389498,280.086212
129278,55.590473,37.668960,6.554022,1.157241,-6.451046,-1.816002,-0.013168,8.723275,-0.061069,-0.015267,-0.015267,-9.082294,-15.238323,280.084686
129378,55.590473,37.668960,6.554022,1.157241,-6.451046,-2.043451,-0.051475,9.038112,-0.061069,0.000000,-0.030534,-9.025499,-14.999176,280.081634
129478,55.590473,37.668960,6.554022,1.157241,-6.451046,-1.845930,0.031125,9.372103,-0.091603,0.061069,-0.030534,-8.856680,-14.493478,280.078582
129579,55.590473,37.668960,6.554022,1.157241,-6.451046,-1.855506,0.037110,9.090785,-0.076336,0.015267,-0.030534,-8.885737,-14.069597,280.075500
129679,55.590473,37.668960,6.554022,1.157241,-6.451046,-1.829170,-0.124498,8.977060,-0.076336,0.015267,-0.015267,-8.879329,-13.683680,280.073974
129779,55.590473,37.668960,6.554022,1.157241,-6.451046,-1.552640,-0.074220,8.931570,-0.045802,-0.045802,-0.015267,-8.893234,-13.208215,280.072448
129879,55.590473,37.668960,6.554022,1.157241,-6.451046,-1.678335,-0.076614,9.254787,-0.091603,0.015267,-0.030534,-8.894733,-12.932250,280.069396
129979,55.590473,37.668960,6.554022,1.157241,-6.451046,-1.792060,-0.141258,9.115923,-0.076336,-0.030534,-0.015267,-8.945821,-12.754752,280.067871
130079,55.590473,37.668960,6.554022,1.157241,-6.451046,-2.048239,-0.399832,9.279926,-0.076336,0.000000,-0.015267,-9.003659,-12.663185,280.066345
130179,55.590473,37.668960,6.554022,1.157241,-6.451046,-1.960851,-0.154426,7.380127,-0.122137,-0.030534,-0.030534,-9.240771,-12.899023,280.063293
130279,55.590473,37.668960,6.554022,1.157241,-6.451046,-2.767697,-0.243011,11.137826,0.274809,-0.458015,0.198473,-8.666525,-11.720404,280.083129
130379,55.590473,37.668960,6.554022,1.157241,-6.451046,-2.287660,-0.963666,8.103177,-0.106870,0.183206,-0.091603,-9.561222,-13.280937,280.073974
130479,55.590473,37.668960,6.554022,1.157241,-6.451046,-2.249352,0.494403,9.871294,-0.045802,-0.305344,0.076336,-9.525015,-12.643103,280.081604
130579,55.590473,37.668960,6.554022,1.157241,-6.451046,-1.155202,-1.096544,10.811018,0.122137,-0.458015,0.122137,-10.387265,-12.290754,280.093811
130721,55.590507,37.668804,6.554022,1.157241,-6.451046,-2.613271,-1.212663,10.193314,0.030534,0.015267,0.015267,-9.979923,-13.018348,280.095977
130821,55.590507,37.668804,6.554022,1.157241,-6.451046,-2.430115,-0.484826,8.251617,0.030534,-0.183206,0.030534,-9.457640,-13.811387,280.099029
130921,55.590507,37.668804,6.554022,1.157241,-6.451046,-2.390610,0.281319,6.925229,-0.045802,-0.213740,0.076336,-9.218860,-14.483769,280.106658
131021,55.590507,37.668804,6.554022,1.157241,-6.451046,-2.345121,-0.594959,7.366959,-0.198473,0.351145,-0.106870,-9.676191,-15.112379,280.095977
131121,55.590507,37.668804,6.554022,1.157241,-6.451046,-3.090914,-1.292869,9.360132,-0.305344,0.412214,-0.076336,-10.081255,-14.523840,280.088348
131221,55.590507,37.668804,6.554022,1.157241,-6.451046,-2.403779,-1.975216,8.520964,0.076336,-0.473282,0.122137,-10.375872,-14.389743,280.100555
131321,55.590507,37.668804,6.554022,1.157241,-6.451046,-2.074576,-0.362722,9.081208,-0.030534,-0.106870,0.015267,-9.633028,-13.714135,280.102081
131421,55.590507,37.668804,6.554022,1.157241,-6.451046,-2.262521,-0.065841,8.421605,-0.045802,-0.076336,0.015267,-9.502151,-13.897111,280.103607
131521,55.590507,37.668804,6.554022,1.157241,-6.451046,-2.404976,-0.222661,8.562863,-0.076336,-0.076336,0.000000,-9.524278,-13.907906,280.103607
131621,55.590507,37.668804,6.554022,1.157241,-6.451046,-2.428918,-0.238223,8.752005,-0.076336,-0.015267,0.000000,-9.625125,-13.900710,280.103607
131721,55.590507,37.668804,6.554022,1.157241,-6.451046,-2.303222,-0.541090,8.741230,-0.045802,-0.045802,0.015267,-9.844032,-13.920305,280.105133
131821,55.590507,37.668804,6.554022,1.157241,-6.451046,-2.421735,-0.418985,8.979454,-0.091603,0.045802,0.000000,-9.863060,-14.028138,280.105133
131921,55.590507,37.668804,6.554022,1.157241,-6.451046,-2.477999,-0.286107,9.065645,-0.045802,-0.045802,0.015267,-9.855881,-14.085020,280.106658
132021,55.590507,37.668804,6.554022,1.157241,-6.451046,-2.287660,-0.333991,9.303868,-0.076336,0.061069,0.000000,-9.727239,-14.042825,280.106658
132121,55.590507,37.668804,6.554022,1.157241,-6.451046,-2.446874,-0.395043,8.497022,-0.061069,-0.015267,0.000000,-9.652910,-14.104969,280.106658
132221,55.590507,37.668804,6.554022,1.157241,-6.451046,-2.224213,-0.094571,8.894460,-0.076336,0.015267,0.000000,-9.493569,-14.032706,280.106658
132321,55.590507,37.668804,6.554022,1.157241,-6.451046,-2.414552,-0.129287,8.845378,-0.076336,-0.015267,0.000000,-9.473858,-14.064931,280.106658
132421,55.590507,37.668804,6.554022,1.157241,-6.451046,-2.364274,-0.269348,8.929176,-0.061069,-0.061069,0.000000,-9.445062,-14.006426,280.106658
132521,55.590507,37.668804,6.554022,1.157241,-6.451046,nan,nan,nan,nan,nan,nan,nan,nan,280.106658
132626,55.590507,37.668804,6.554022,1.157241,-6.451046,-2.379837,-0.393846,8.799889,-0.061069,-0.030534,0.000000,-9.265656,-14.119504,280.106658
132726,55.590507,37.668804,6.554022,1.157241,-6.451046,-2.493561,0.002394,8.854955,-0.045802,-0.076336,0.000000,-9.068106,-14.197232,280.106658
132826,55.590507,37.668804,6.554022,1.157241,-6.451046,-2.407370,0.004788,9.166202,-0.061069,-0.030534,0.000000,-8.973737,-14.266445,280.106658
132926,55.590507,37.668804,6.554022,1.157241,-6.451046,-2.455254,-0.094571,8.989030,-0.076336,0.015267,-0.015267,-8.982883,-14.458789,280.105133
133026,55.590507,37.668804,6.554022,1.157241,-6.451046,-2.515109,-0.166397,8.765172,-0.076336,-0.015267,-0.015267,-8.988652,-14.700042,280.103607
133126,55.590507,37.668804,6.554022,1.157241,-6.451046,-2.589329,-0.092177,8.937556,-0.076336,0.000000,-0.015267,-8.921899,-14.803596,280.102081
133226,55.590507,37.668804,6.554022,1.157241,-6.451046,-2.530671,0.003591,9.124303,-0.091603,0.030534,-0.015267,-8.864628,-14.829701,280.100555
133326,55.590507,37.668804,6.554022,1.157241,-6.451046,-2.437297,-0.076614,9.095573,-0.061069,-0.015267,-0.015267,-8.790806,-14.842431,280.099029
133426,55.590507,37.668804,6.554022,1.157241,-6.451046,-2.578555,-0.059855,8.726865,-0.076336,-0.015267,-0.030534,-8.802176,-14.946117,280.095977
133526,55.590507,37.668804,6.554022,1.157241,-6.451046,-2.432509,-0.149638,8.617930,-0.061069,-0.030534,-0.015267,-8.782171,-14.920828,280.094451
133626,55.590507,37.668804,6.554022,1.157241,-6.451046,-2.305616,0.019154,9.074025,-0.045802,-0.045802,-0.015267,-8.703432,-14.875803,280.092926
133726,55.590507,37.668804,6.554022,1.157241,-6.451046,-2.394202,-0.044293,8.810663,-0.076336,-0.015267,-0.030534,-8.744470,-14.915020,280.089874
133826,55.590507,37.668804,6.554022,1.157241,-6.451046,-2.246958,-0.271742,9.157822,-0.045802,-0.045802,-0.015267,-8.795072,-14.753181,280.088348
133926,55.590507,37.668804,6.554022,1.157241,-6.451046,-2.196680,-0.034716,8.881292,-0.091603,0.030534,-0.030534,-8.828686,-14.656194,280.085296
134026,55.590507,37.668804,6.554022,1.157241,-6.451046,-1.985990,-0.168791,8.999805,-0.045802,-0.076336,-0.015267,-8.838040,-14.408808,280.083770
134126,55.590507,37.668804,6.554022,1.157241,-6.451046,-2.003947,-0.105345,8.863335,-0.076336,-0.045802,-0.015267,-8.851197,-14.191838,280.082244
134226,55.590507,37.668804,6.554022,1.157241,-6.451046,-1.842338,-0.051475,9.208100,-0.076336,-0.045802,-0.015267,-8.839360,-13.802913,280.080718
134326,55.590507,37.668804,6.554022,1.157241,-6.451046,-1.616086,-0.158017,8.962695,-0.061069,-0.045802,-0.015267,-8.893001,-13.438505,280.079193
134426,55.590507,37.668804,6.554022,1.157241,-6.451046,-1.553837,-0.203507,9.093178,-0.061069,-0.061069,-0.015267,-8.902085,-13.128195,280.077667
134526,55.590507,37.668804,6.554022,1.157241,-6.451046,-1.521515,-0.312443,9.090785,-0.030534,-0.091603,0.000000,-8.963271,-12.724038,280.077667
134717,55.590507,37.668804,6.554022,1.157241,-6.451046,-1.666364,-0.227449,8.957906,-0.061069,-0.015267,-0.015267,-8.816535,-12.285795,280.074737
134817,55.590507,37.668804,6.554022,1.157241,-6.451046,-1.593341,-0.094571,8.629900,-0.061069,-0.076336,-0.015267,-8.802384,-12.102202,280.073211
134917,55.590507,37.668804,6.554022,1.157241,-6.451046,-1.644816,-0.275333,9.715671,-0.045802,-0.045802,-0.015267,-8.776247,-11.712934,280.071685
135017,55.590507,37.668804,6.554022,1.157241,-6.451046,-1.333570,-0.320823,9.221268,-0.061069,-0.015267,-0.015267,-8.829557,-11.431696,280.070159
135117,55.590507,37.668804,6.554022,1.157241,-6.451046,-1.294066,-0.277727,9.425972,-0.061069,-0.030534,-0.015267,-8.886639,-11.146932,280.068634
135217,55.590507,37.668804,6.554022,1.157241,-6.451046,-1.229423,-0.418985,9.192538,-0.045802,-0.076336,-0.015267,-8.948939,-10.955649,280.067108
135317,55.590507,37.668804,6.554022,1.157241,-6.451046,-1.270124,-0.262165,9.077616,-0.076336,0.045802,-0.015267,-8.804414,-10.696620,280.065582
135417,55.590507,37.668804,6.554022,1.157241,-6.451046,-1.151611,-0.056264,9.166202,-0.076336,0.000000,-0.015267,-8.682549,-10.313086,280.064056
135517,55.590507,37.668804,6.554022,1.157241,-6.451046,-0.796072,0.025139,9.222465,-0.030534,-0.137405,0.000000,-8.638521,-9.941469,280.064056
135617,55.590507,37.668804,6.554022,1.157241,-6.451046,-1.193510,-0.293290,9.574413,-0.137405,0.061069,-0.030534,-8.850363,-9.666659,280.061004
135717,55.590507,37.668804,6.554022,1.157241,-6.451046,-0.973243,-0.399832,9.830593,-0.045802,-0.061069,0.000000,-9.053678,-9.292704,280.061004
135817,55.590507,37.668804,6.554022,1.157241,-6.451046,-1.074997,-0.454898,8.892066,-0.061069,-0.076336,-0.015267,-9.245456,-9.321417,280.059478
135917,55.590507,37.668804,6.554022,1.157241,-6.451046,-1.677138,-0.142455,9.373300,-0.076336,0.061069,-0.015267,-9.038828,-9.178283,280.057952
136017,55.590507,37.668804,6.554022,1.157241,-6.451046,-1.651999,-0.221464,9.325416,-0.061069,0.045802,-0.015267,-8.996953,-9.182523,280.056427
136117,55.590507,37.668804,6.554022,1.157241,-6.451046,-1.727416,-0.004788,9.041703,-0.061069,-0.045802,-0.015267,-8.874698,-9.352689,280.054901
136217,55.590507,37.668804,6.554022,1.157241,-6.451046,-2.051831,-0.229843,9.226057,-0.076336,0.045802,-0.015267,-8.911563,-9.471067,280.053375
136317,55.590507,37.668804,6.554022,1.157241,-6.451046,-2.291251,-0.253785,8.701726,-0.091603,0.076336,-0.030534,-8.940332,-9.814484,280.050323
136417,55.590507,37.668804,6.554022,1.157241,-6.451046,-2.560599,-0.050278,8.362947,-0.061069,-0.061069,0.000000,-9.003224,-10.216240,280.050323
136517,55.590507,37.668804,6.554022,1.157241,-6.451046,nan,nan,nan,nan,nan,nan,nan,nan,280.050323
136623,55.590507,37.668804,6.554022,1.157241,-6.451046,-2.178724,-0.322020,9.500193,-0.045802,-0.091603,-0.015267,-9.180432,-10.643645,280.047180
136723,55.590507,37.668804,6.554022,1.157241,-6.451046,-1.221043,-0.276530,11.425131,0.000000,-0.045802,0.015267,-8.900766,-10.107500,280.048706
136823,55.590507,37.668804,6.554022,1.157241,-6.451046,-2.230199,-0.715866,8.811860,-0.061069,0.198473,-0.061069,-8.868538,-11.664682,280.042602
136923,55.590507,37.668804,6.554022,1.157241,-6.451046,-2.780865,-0.021548,6.517017,-0.015267,-0.030534,-0.015267,-8.534046,-12.972524,280.041076
137023,55.590507,37.668804,6.554022,1.157241,-6.451046,-3.022680,0.059855,5.434838,-0.045802,-0.091603,-0.015267,-8.267817,-13.489937,280.039550
137123,55.590507,37.668804,6.554022,1.157241,-6.451046,-2.862268,0.612916,8.209718,-0.122137,-0.091603,-0.015267,-8.414587,-12.524645,280.038024
137223,55.590507,37.668804,6.554022,1.157241,-6.451046,-3.208230,-0.626084,9.051280,-0.045802,-0.183206,-0.015267,-8.727084,-12.156131,280.036499
137323,55.590507,37.668804,6.554022,1.157241,-6.451046,-2.433706,-0.397438,10.801442,-0.122137,-0.030534,-0.030534,-9.037374,-11.267367,280.033447
137423,55.590507,37.668804,6.554022,1.157241,-6.451046,-2.603694,-0.310049,10.771513,-0.045802,0.000000,0.000000,-8.945040,-11.322999,280.033447
137523,55.590507,37.668804,6.554022,1.157241,-6.451046,-2.202666,-0.586579,8.963891,-0.076336,0.061069,-0.030534,-9.135537,-12.345102,280.030395
137623,55.590507,37.668804,6.554022,1.157241,-6.451046,-2.503138,0.028730,7.812280,-0.061069,0.030534,-0.015267,-8.947050,-12.973956,280.028869
137723,55.590507,37.668804,6.554022,1.157241,-6.451046,-2.232593,-0.067038,7.787141,-0.106870,0.061069,-0.015267,-8.938808,-13.129897,280.027343
137823,55.590507,37.668804,6.554022,1.157241,-6.451046,-2.367866,-0.106542,8.546103,-0.076336,-0.061069,-0.015267,-9.068172,-13.195206,280.025817
137923,55.590507,37.668804,6.554022,1.157241,-6.451046,-2.888604,-0.338780,8.844182,-0.091603,-0.015267,-0.030534,-9.284051,-13.327058,280.022766
138023,55.590507,37.668804,6.554022,1.157241,-6.451046,-2.523488,-0.403423,9.402030,-0.091603,0.076336,-0.015267,-9.295733,-13.298871,280.021240
138123,55.590507,37.668804,6.554022,1.157241,-6.451046,-2.145205,-0.415394,10.281900,-0.030534,-0.152672,0.030534,-9.119675,-12.981470,280.024291
138223,55.590507,37.668804,6.554022,1.157241,-6.451046,-2.068590,-0.378284,10.242395,-0.045802,-0.091603,-0.030534,-8.770981,-12.017089,280.021240
138323,55.590507,37.668804,6.554022,1.157241,-6.451046,-1.995567,-0.240617,7.344213,-0.045802,-0.076336,-0.015267,-8.736429,-11.638728,280.019714
138423,55.590507,37.668804,6.554022,1.157241,-6.451046,-2.331953,-0.158017,6.924031,-0.061069,0.045802,-0.015267,-8.763031,-12.065181,280.018188
138523,55.590507,37.668804,6.554022,1.157241,-6.451046,nan,nan,nan,nan,nan,nan,nan,nan,280.018188
138629,55.590507,37.668804,6.554022,1.157241,-6.451046,-3.494337,0.119710,9.586384,-0.106870,0.106870,-0.015267,-8.715749,-14.912970,280.015045
138729,55.590507,37.668804,6.554022,1.157241,-6.451046,-3.664326,-0.520739,9.291897,-0.106870,0.076336,-0.045802,-8.977015,-15.935505,280.010467
138829,55.590507,37.668804,6.554022,1.157241,-6.451046,-3.471592,0.011971,10.723629,-0.091603,-0.045802,-0.015267,-8.757957,-15.757413,280.008941
138929,55.590507,37.668804,6.554022,1.157241,-6.451046,-3.053804,-0.271742,8.489840,-0.076336,-0.030534,-0.030534,-9.014756,-15.643163,280.005889
139029,55.590507,37.668804,6.554022,1.157241,-6.451046,-3.549404,-0.185551,7.993042,-0.076336,0.000000,-0.015267,-9.139460,-16.027399,280.004364
139129,55.590507,37.668804,6.554022,1.157241,-6.451046,-3.552995,-0.670376,8.121132,-0.045802,0.015267,0.000000,-9.224139,-16.639604,280.004364
139229,55.590507,37.668804,6.554022,1.157241,-6.451046,-3.426103,0.147243,8.398860,-0.076336,0.015267,-0.015267,-9.111278,-17.070505,280.002838
139329,55.590507,37.668804,6.554022,1.157241,-6.451046,-3.332729,-0.067038,8.487445,-0.061069,-0.045802,-0.015267,-8.948179,-17.326482,280.001312
139429,55.590507,37.668804,6.554022,1.157241,-6.451046,-3.165135,-0.058658,8.693346,-0.076336,-0.045802,-0.030534,-9.080291,-17.324663,279.998260
139529,55.590507,37.668804,6.554022,1.157241,-6.451046,-3.271677,-0.355539,8.598776,-0.076336,0.000000,-0.015267,-9.276717,-17.520107,279.996734
139629,55.590507,37.668804,6.554022,1.157241,-6.451046,-3.211822,-0.201113,8.759187,-0.076336,0.015267,-0.015267,-9.328948,-17.697498,279.995208
139729,55.590507,37.668804,6.554022,1.157241,-6.451046,-3.270479,-0.404620,8.637084,-0.030534,-0.076336,0.000000,-9.343248,-17.888822,279.995208
139829,55.590507,37.668804,6.554022,1.157241,-6.451046,-3.284845,-0.110133,8.604762,-0.076336,-0.015267,-0.015267,-9.259270,-18.028964,279.993682
139929,55.590507,37.668804,6.554022,1.157241,-6.451046,-3.276465,-0.356736,8.631097,-0.061069,-0.015267,0.000000,-9.380339,-18.215867,279.993682
140029,55.590507,37.668804,6.554022,1.157241,-6.451046,-3.384204,-0.214281,8.668208,-0.091603,0.015267,-0.015267,-9.438313,-18.491287,279.992156
140129,55.590507,37.668804,6.554022,1.157241,-6.451046,-3.454833,-0.503979,8.433576,-0.030534,-0.091603,-0.015267,-9.609866,-18.690778,279.990631
140229,55.590507,37.668804,6.554022,1.157241,-6.451046,-3.365051,-0.198719,8.550891,-0.106870,0.061069,-0.015267,-9.565768,-18.720584,279.989105
140329,55.590507,37.668804,6.554022,1.157241,-6.451046,-3.341109,-0.448913,8.425196,-0.045802,-0.091603,0.000000,-9.580613,-18.927999,279.989105
140429,55.590507,37.668804,6.554022,1.157241,-6.451046,-3.288436,-0.316035,8.987833,-0.076336,-0.015267,-0.015267,-9.633749,-18.983781,279.987579
140529,55.590507,37.668804,6.554022,1.157241,-6.451046,-3.463213,-0.253785,8.646660,-0.061069,-0.045802,-0.015267,-9.676262,-19.081090,279.986053
140719,55.590507,37.668804,6.554022,1.157241,-6.451046,-3.228581,-0.499191,9.042901,-0.061069,0.030534,0.015267,-9.624674,-19.323238,279.988952
140819,55.590507,37.668804,6.554022,1.157241,-6.451046,-3.303998,-0.331597,8.315063,-0.030534,-0.015267,0.000000,-9.350262,-19.608091,279.988952
140919,55.590507,37.668804,6.554022,1.157241,-6.451046,-2.983175,0.265756,8.161834,-0.106870,0.000000,-0.015267,-9.227405,-19.672426,279.987426
141019,55.590507,37.668804,6.554022,1.157241,-6.451046,-3.134010,0.000000,8.823831,-0.122137,-0.015267,-0.015267,-9.517592,-19.656764,279.985900
141119,55.590507,37.668804,6.554022,1.157241,-6.451046,-3.275268,-0.864307,8.854955,-0.091603,-0.061069,-0.015267,-10.106326,-19.682741,279.984375
141219,55.590507,37.668804,6.554022,1.157241,-6.451046,-3.445256,-0.715866,9.111135,-0.061069,-0.015267,0.000000,-10.283246,-19.721973,279.984375
141319,55.590507,37.668804,6.554022,1.157241,-6.451046,-3.327940,-0.495600,9.074025,-0.045802,0.015267,0.015267,-10.124722,-19.778141,279.985900
141419,55.590507,37.668804,6.554022,1.157241,-6.451046,-3.070564,-0.578200,8.547301,-0.045802,0.000000,0.000000,-9.769362,-19.800851,279.985900
141519,55.590507,37.668804,6.554022,1.157241,-6.451046,-3.210624,0.126893,7.858967,-0.061069,-0.015267,0.000000,-9.511378,-19.936965,279.985900
141619,55.590507,37.668804,6.554022,1.157241,-6.451046,-3.063381,0.262165,7.413646,-0.091603,-0.076336,0.000000,-9.470561,-20.244935,279.985900
141719,55.590507,37.668804,6.554022,1.157241,-6.451046,-3.329138,-0.247800,8.951921,-0.106870,-0.030534,-0.015267,-9.598005,-20.219066,279.984375
141819,55.590507,37.668804,6.554022,1.157241,-6.451046,-3.312378,-0.587777,9.051280,-0.076336,-0.061069,-0.015267,-10.018425,-20.022800,279.982849
141919,55.590507,37.668804,6.554022,1.157241,-6.451046,-3.280056,-0.416591,8.646660,-0.045802,-0.030534,0.000000,-9.984196,-19.870580,279.982849
142019,55.590507,37.668804,6.554022,1.157241,-6.451046,-3.329138,-0.531513,8.445547,-0.045802,-0.015267,0.000000,-9.938545,-19.753326,279.982849
142119,55.590507,37.668804,6.554022,1.157241,-6.451046,-3.286042,-0.004788,8.646660,-0.061069,-0.030534,-0.015267,-9.609851,-19.604263,279.981323
142219,55.590507,37.668804,6.554022,1.157241,-6.451046,-3.144784,-0.299275,8.555680,-0.076336,0.015267,-0.015267,-9.601219,-19.461395,279.979797
142319,55.590507,37.668804,6.554022,1.157241,-6.451046,-3.112462,-0.128090,8.589200,-0.061069,-0.030534,-0.015267,-9.559914,-19.353334,279.978271
142419,55.590507,37.668804,6.554022,1.157241,-6.451046,-3.191471,-0.451307,8.267179,-0.045802,-0.091603,0.000000,-9.715417,-19.362115,279.978271
142519,55.590507,37.668804,6.554022,1.157241,-6.451046,-3.100491,-0.298078,8.890869,-0.061069,0.000000,-0.015267,-9.658513,-19.240913,279.976745
142669,55.590507,37.668804,6.554022,1.157241,-6.451046,-3.214216,-0.475249,8.586805,-0.030534,-0.045802,0.000000,-9.606689,-19.384828,279.976745
142769,55.590507,37.668804,6.554022,1.157241,-6.451046,-3.134010,-0.031125,8.538921,0.030534,-0.213740,0.045802,-9.468588,-19.311042,279.981323
142869,55.590507,37.668804,6.554022,1.157241,-6.451046,-3.017891,-0.483629,8.851365,-0.076336,0.000000,-0.015267,-9.557799,-19.336746,279.979797
142969,55.590507,37.668804,6.554022,1.157241,-6.451046,-3.040636,-0.190339,8.511387,-0.061069,0.000000,-0.015267,-9.542879,-19.329624,279.978271
143069,55.590507,37.668804,6.554022,1.157241,-6.451046,-2.877830,-0.416591,8.762779,-0.061069,0.015267,-0.015267,-9.583230,-19.179386,279.976745
143169,55.590507,37.668804,6.554022,1.157241,-6.451046,-2.846706,-0.069432,9.023747,-0.076336,0.015267,-0.015267,-9.441300,-18.927013,279.975219
143269,55.590507,37.668804,6.554022,1.157241,-6.451046,-2.454057,-0.642843,7.308300,-0.061069,-0.076336,-0.015267,-9.656194,-18.969923,279.973693
143369,55.590507,37.668804,6.554022,1.157241,-6.451046,-2.348712,0.077812,8.966286,-0.091603,0.015267,-0.015267,-9.293268,-18.315090,279.972167
143469,55.590507,37.668804,6.554022,1.157241,-6.451046,-2.627636,-0.509965,8.669404,-0.030534,-0.091603,0.000000,-9.515509,-18.153963,279.972167
143569,55.590507,37.668804,6.554022,1.157241,-6.451046,-2.370260,-0.380678,9.020155,-0.091603,-0.015267,-0.015267,-9.416634,-17.803949,279.970642
143669,55.590507,37.668804,6.554022,1.157241,-6.451046,-2.351106,-0.481235,8.845378,-0.045802,-0.122137,0.015267,-9.489849,-17.681934,279.972167
143769,55.590507,37.668804,6.554022,1.157241,-6.451046,-2.310405,-0.465672,9.174581,-0.076336,-0.030534,0.000000,-9.565419,-17.374483,279.972167
143869,55.590507,37.668804,6.554022,1.157241,-6.451046,-1.939303,-0.250194,8.845378,-0.061069,0.000000,0.000000,-9.532674,-17.043342,279.972167
143969,55.590507,37.668804,6.554022,1.157241,-6.451046,-1.889025,-0.561440,9.124303,-0.030534,-0.076336,0.015267,-9.507310,-16.636188,279.973693
144069,55.590507,37.668804,6.554022,1.157241,-6.451046,-1.485602,-0.184354,9.252393,-0.061069,-0.045802,0.000000,-9.411485,-16.021333,279.973693
144169,55.590507,37.668804,6.554022,1.157241,-6.451046,-1.496376,-0.494403,9.287109,-0.076336,-0.030534,0.000000,-9.380934,-15.497224,279.973693
144269,55.590507,37.668804,6.554022,1.157241,-6.451046,-1.349133,-0.282516,9.120712,-0.076336,-0.061069,0.000000,-9.411810,-15.016686,279.973693
144369,55.590507,37.668804,6.554022,1.157241,-6.451046,-1.091756,-0.517148,9.247605,-0.045802,-0.091603,0.015267,-9.462479,-14.395153,279.975219
144470,55.590507,37.668804,6.554022,1.157241,-6.451046,-1.055843,-0.258574,9.434352,-0.030534,-0.076336,0.015267,-9.425275,-13.740584,279.976776
144570,55.590507,37.668804,6.554022,1.157241,-6.451046,nan,nan,nan,nan,nan,nan,nan,nan,279.976776
144675,55.590808,37.668289,6.554022,1.157241,-6.451046,-1.095347,-0.014365,9.461886,-0.030534,-0.030534,0.000000,-9.134459,-12.523815,279.976776
144775,55.590808,37.668289,6.554022,1.157241,-6.451046,-0.984017,-0.221464,9.214086,-0.015267,-0.122137,0.015267,-9.102966,-12.125317,279.978302
144875,55.590808,37.668289,6.554022,1.157241,-6.451046,-1.103727,-0.225055,8.944738,-0.091603,0.015267,-0.015267,-9.129576,-11.646200,279.976776
144975,55.590808,37.668289,6.554022,1.157241,-6.451046,-0.311246,-0.195127,10.116700,-0.076336,-0.045802,0.000000,-9.152473,-10.743425,279.976776
145075,55.590808,37.668289,6.554022,1.157241,-6.451046,-1.225831,-0.313640,11.385626,-0.030534,0.091603,-0.015267,-8.975809,-10.271377,279.975250
145175,55.590808,37.668289,6.554022,1.157241,-6.451046,-2.675520,-0.916979,7.207744,0.000000,0.061069,0.000000,-9.238670,-12.217711,279.975250
145275,55.590808,37.668289,6.554022,1.157241,-6.451046,-2.470816,-0.219069,6.408081,-0.061069,0.030534,0.000000,-8.929860,-12.828557,279.975250
145375,55.590808,37.668289,6.554022,1.157241,-6.451046,-2.706645,0.410606,7.406463,-0.122137,-0.061069,-0.015267,-8.569665,-12.360259,279.973724
145475,55.590808,37.668289,6.554022,1.157241,-6.451046,-2.778471,0.152032,9.198523,-0.106870,-0.122137,0.000000,-8.631655,-11.689871,279.973724
145575,55.590808,37.668289,6.554022,1.157241,-6.451046,-2.736572,-0.393846,10.376471,-0.122137,-0.030534,-0.015267,-9.030850,-11.362317,279.972198
145675,55.590808,37.668289,6.554022,1.157241,-6.451046,-2.551022,-0.644040,10.395625,-0.076336,0.045802,0.015267,-9.173959,-11.433914,279.973724
145775,55.590808,37.668289,6.554022,1.157241,-6.451046,-2.570175,-0.305261,9.181764,-0.015267,-0.091603,0.015267,-9.220705,-12.077387,279.975250
145875,55.590808,37.668289,6.554022,1.157241,-6.451046,-2.398990,-0.052672,8.549695,-0.091603,0.061069,-0.015267,-9.015531,-12.544095,279.973724
145975,55.590808,37.668289,6.554022,1.157241,-6.451046,-2.379837,-0.178368,9.648633,-0.030534,-0.106870,0.000000,-8.950057,-12.665638,279.973724
146075,55.590808,37.668289,6.554022,1.157241,-6.451046,-1.827973,-0.338780,10.267535,-0.076336,-0.091603,-0.045802,-8.707186,-11.215309,279.969146
146176,55.590808,37.668289,6.554022,1.157241,-6.451046,-2.311602,-0.304064,6.822278,-0.091603,0.061069,-0.015267,-9.178099,-11.151727,279.967590
146276,55.590808,37.668289,6.554022,1.157241,-6.451046,-2.091335,-0.276530,5.753267,-0.045802,-0.015267,0.015267,-9.526137,-12.041226,279.969116
146376,55.590808,37.668289,6.554022,1.157241,-6.451046,-3.106477,0.229843,8.641872,-0.045802,0.030534,0.000000,-9.276531,-13.374013,279.969116
146476,55.590808,37.668289,6.554022,1.157241,-6.451046,-3.617639,-0.199916,9.795877,-0.106870,0.000000,-0.030534,-9.234350,-14.380837,279.966064
146576,55.590808,37.668289,6.554022,1.157241,-6.451046,-3.069367,-0.152032,10.666169,-0.076336,-0.061069,-0.015267,-9.462972,-14.338910,279.964538
146721,55.590702,37.668182,6.554022,1.157241,-6.451046,-2.871845,-0.537498,8.327033,-0.061069,0.015267,-0.015267,-9.800880,-14.602719,279.962310
146821,55.590702,37.668182,6.554022,1.157241,-6.451046,-2.728193,-0.300472,8.625112,-0.030534,-0.045802,0.015267,-9.542303,-14.831122,279.963836
146921,55.590702,37.668182,6.554022,1.157241,-6.451046,-2.747346,-0.238223,8.499417,-0.045802,-0.030534,-0.015267,-9.307090,-15.011791,279.962310
147021,55.590702,37.668182,6.554022,1.157241,-6.451046,-2.767697,-0.061052,8.465898,-0.061069,-0.045802,-0.015267,-9.205529,-15.076452,279.960784
147121,55.590702,37.668182,6.554022,1.157241,-6.451046,-2.765303,-0.215478,8.558074,-0.061069,-0.030534,0.000000,-9.180785,-15.225360,279.960784
147221,55.590702,37.668182,6.554022,1.157241,-6.451046,-2.950854,-0.056264,8.542512,-0.091603,-0.030534,-0.015267,-9.401087,-15.381777,279.959259
147321,55.590702,37.668182,6.554022,1.157241,-6.451046,-2.785654,-0.348356,8.935161,-0.091603,-0.015267,-0.015267,-9.641931,-15.348985,279.957733
147421,55.590702,37.668182,6.554022,1.157241,-6.451046,-2.741361,-0.264559,8.255208,-0.091603,-0.015267,-0.015267,-9.926669,-15.499890,279.956207
147521,55.590702,37.668182,6.554022,1.157241,-6.451046,-3.066972,-0.812831,9.668984,-0.015267,-0.030534,0.000000,-9.956494,-15.516348,279.956207
147621,55.590702,37.668182,6.554022,1.157241,-6.451046,-2.595315,-0.599748,8.936358,-0.061069,0.076336,-0.015267,-9.771674,-15.670296,279.954681
147721,55.590702,37.668182,6.554022,1.157241,-6.451046,-2.822764,0.141258,8.348582,-0.061069,0.000000,-0.015267,-9.365880,-15.850423,279.953155
