# Инициализация MPU6050...
# MPU6050 OK
# Держите неподвижно. Калибровка гиро... 5 сек
# Держите неподвижно... 4 сек
# Держите неподвижно... 3 сек
# Держите неподвижно... 2 сек
# Держите неподвижно... 1 сек
# Держите неподвижно... 0 сек
# Калибровка гиро завершена.
# DMP готов. Начинайте движение.
# Ожидание фиксации ГНСС...
time_ms,lat,lon,alt_m,speed_mps,sats,fix,ax,ay,az,gx,gy,gz,roll_deg,pitch_deg,yaw_deg,nan,nan,nan
5399,nan,nan,nan,nan,0,0,nan,nan,nan,nan,nan,nan,0.000000,0.000000,0.000000,nan,nan,nan
5499,55.590812,37.672641,167.300003,0.000000,6,1,0.306533,-0.083929,-5.237297,-0.694656,-0.297710,-0.007634,-1.363150,1.553661,0.102440,-179.5332,-0.0299,89.9778
5599,55.590812,37.672641,167.300003,0.000000,6,1,0.319182,-0.110732,-5.260245,-0.793893,-0.343511,-0.114504,-2.020706,2.134802,0.135624,-179.0763,-0.0551,89.9660
5699,55.590812,37.672641,167.300003,0.000000,6,1,0.310147,-0.092268,-5.232000,-0.702290,-0.145038,-0.061069,-2.663563,2.794032,0.225967,-178.6102,-0.1000,89.9483
5799,55.590812,37.672641,167.300003,0.000000,6,1,0.316170,-0.114902,-5.306144,-0.587786,-0.129771,-0.167939,-3.342425,3.298836,0.285275,-178.1326,-0.1466,89.9409
5899,55.590812,37.672641,167.300003,0.000000,6,1,0.292680,-0.096437,-5.202579,-0.625954,0.167939,0.045802,-3.823468,3.848067,0.415614,-177.6589,-0.2221,89.9107
5999,55.590812,37.672641,167.300003,0.000000,6,1,0.242085,-0.090481,-5.291433,-0.343511,-0.236641,0.068702,-4.314141,4.149967,0.457511,-177.1568,-0.2568,89.8793
6099,55.590812,37.672641,167.300003,0.000000,6,1,0.407121,-0.095842,-5.230236,-0.648855,-0.076336,-0.267176,-4.813469,4.793840,0.502875,-176.6854,-0.3091,89.8804
6199,55.590812,37.672641,167.300003,0.000000,6,1,0.257745,-0.162552,-5.292021,-0.427481,-0.183206,-0.213740,-5.289870,4.999179,0.574402,-176.1918,-0.3503,89.8763
6299,55.590812,37.672641,167.300003,0.000000,6,1,0.283645,-0.090481,-5.471494,-0.160305,-0.106870,-0.053435,-5.664093,5.193345,0.565277,-175.6714,-0.3980,89.8553
6400,55.590812,37.672641,167.300003,0.000000,6,1,0.125837,0.041749,-5.074888,-0.083969,0.251908,0.580153,-5.294859,5.091100,-0.002662,-175.1376,-0.4770,89.7670
6500,55.590812,37.672641,167.300003,0.000000,6,1,0.191490,-0.110137,-5.184926,-0.366412,-0.312977,-0.022901,-5.817030,5.586915,-0.339782,-174.6377,-0.5035,89.7439
6600,55.590812,37.672641,167.300003,0.000000,6,1,0.209560,-0.041639,-5.299082,-0.442748,-0.244275,1.755725,-6.064738,5.573405,-1.218369,-174.1439,-0.5192,89.5430
6700,55.590812,37.672641,167.300003,0.000000,6,1,0.695632,-0.397827,-5.357926,1.526718,0.419847,0.099237,-8.273959,8.454653,-1.478533,-173.4545,-0.6168,89.4994
6800,55.590812,37.672641,167.300003,0.000000,6,1,0.672744,-0.094055,-5.102545,0.427481,-0.282443,-0.351145,-7.287788,8.740690,-1.468205,-172.8756,-0.6496,89.5078
6900,55.590812,37.672641,167.300003,0.000000,6,1,0.459523,0.035197,-5.108429,1.030534,3.709924,-0.083969,-6.484189,8.364678,-0.689751,-172.2352,-1.0748,89.4376
7000,55.590812,37.672641,167.300003,0.000000,6,1,0.302317,-0.001732,-5.283195,0.366412,1.175572,-1.244275,-6.045545,6.939969,-0.575290,-171.6638,-1.2646,89.5133
7100,55.590812,37.672641,167.300003,0.000000,6,1,-0.020527,0.136455,-5.328504,1.343511,2.847328,2.916031,-5.491332,6.170387,-0.918796,-170.9842,-1.5577,89.1504
7200,55.590812,37.672641,167.300003,0.000000,6,1,0.288464,0.169215,-5.411473,2.450382,2.816794,4.534351,-5.225306,5.622269,-2.023925,-170.1874,-1.8166,88.6244
7300,55.590812,37.672641,167.300003,0.000000,6,1,0.030670,0.298467,-5.227882,-0.839695,5.129771,0.618321,-4.920093,4.031337,-2.164425,-169.7284,-2.3658,88.4410
7400,55.590812,37.672641,167.300003,0.000000,6,1,-0.087987,0.281193,-5.333800,-0.320611,-1.854962,-0.106870,-5.716418,4.112420,-2.543255,-169.2246,-2.2399,88.4520
7538,55.590812,37.672637,167.500000,0.000000,6,1,0.090902,0.175171,-5.136085,-0.938931,1.595420,-0.061069,-6.337440,5.311952,-2.479491,-168.6107,-2.5324,88.3710
7638,55.590812,37.672637,167.500000,0.000000,6,1,-0.034380,0.160280,-5.400881,-2.587786,-0.404580,0.190840,-6.921035,4.674930,-2.471150,-168.3312,-2.5430,88.3260
7738,55.590812,37.672637,167.500000,0.000000,6,1,0.367970,0.622490,-5.477378,-4.267176,-2.091603,-2.374046,-8.019614,5.495270,-1.291194,-168.2321,-2.4402,88.5666
7838,55.590812,37.672637,167.500000,0.000000,6,1,-0.174119,-0.478237,-5.130790,1.595420,0.534351,-5.274809,-8.076622,6.369189,1.778905,-167.5572,-2.6567,89.0367
7938,55.590812,37.672637,167.500000,0.000000,6,1,-0.049438,-0.028535,-5.251419,-3.541985,0.381679,-1.885496,-8.480366,5.082663,4.606067,-167.3818,-2.7883,89.1774
8038,55.590812,37.672637,167.500000,0.000000,6,1,0.455909,0.478943,-5.761592,-7.351145,1.381679,2.908397,-10.253806,3.467440,4.887306,-167.5632,-2.9134,88.8278
8138,55.590812,37.672637,167.500000,0.000000,6,1,-0.772826,-1.291870,-5.069592,0.954198,0.809160,-0.541985,-13.081166,2.238106,3.605077,-166.9315,-3.0575,88.8272
8238,55.590812,37.672637,167.500000,0.000000,6,1,-0.275309,0.044132,-5.087834,1.114504,-0.770992,-0.267176,-11.667353,1.827456,2.652857,-166.2841,-3.0415,88.8350
8338,55.590812,37.672637,167.500000,0.000000,6,1,-0.101840,0.064979,-5.476202,-3.305344,0.671756,0.618321,-11.539186,2.141939,3.332156,-166.0723,-3.1445,88.7223
8438,55.590812,37.672637,167.500000,0.000000,6,1,-0.578276,-0.730189,-5.021929,0.236641,-1.404580,-0.251908,-12.842580,2.200752,3.633370,-165.5135,-3.0669,88.7443
8538,55.590812,37.672637,167.500000,0.000000,6,1,-0.262058,-0.424035,-5.272603,0.419847,-0.076336,0.824427,-13.093868,2.446226,3.444285,-164.9291,-3.0904,88.6290
8638,55.590812,37.672637,167.500000,0.000000,6,1,-0.379510,-0.527079,-5.228470,1.709924,-1.312977,2.061069,-12.875076,2.379645,2.418020,-164.2111,-2.9605,88.4271
8738,55.590812,37.672637,167.500000,0.000000,6,1,-0.294583,-0.239984,-5.234943,0.862595,-0.961832,0.183206,-11.997074,2.809738,1.859085,-163.5871,-2.9141,88.3975
8838,55.590812,37.672637,167.500000,0.000000,6,1,-0.295788,-0.290017,-5.127259,1.305343,-2.282443,1.068702,-11.477444,3.417560,1.510297,-162.9165,-2.7153,88.3218
8938,55.590812,37.672637,167.500000,0.000000,6,1,-0.236760,-0.114306,-5.232589,1.625954,-1.114504,0.106870,-10.569416,4.063232,0.923125,-162.2168,-2.6559,88.3052
9038,55.590812,37.672637,167.500000,0.000000,6,1,-0.174119,0.150154,-5.156093,0.793893,-0.343511,-0.297710,-9.740112,4.072028,0.687197,-161.6011,-2.6822,88.3039
9138,55.590812,37.672637,167.500000,0.000000,6,1,-0.105454,-0.028535,-5.203167,0.938931,-1.114504,-0.297710,-9.397998,4.554142,0.895784,-160.9720,-2.6355,88.3270
9238,55.590812,37.672637,167.500000,0.000000,6,1,-0.233749,-0.125027,-5.126082,1.900763,-0.511450,0.778626,-8.838032,4.393419,0.777981,-160.2411,-2.6101,88.2290
9338,55.590812,37.672637,167.500000,0.000000,6,1,-0.158459,0.186488,-5.197283,0.480916,0.221374,0.381679,-7.298292,4.320024,0.359368,-159.6528,-2.6661,88.1435
9454,55.590812,37.672637,167.500000,0.000000,6,1,nan,nan,nan,nan,nan,nan,0.000000,0.000000,0.000000,nan,nan,nan
9554,55.590812,37.672637,167.500000,0.000000,6,1,-0.167493,0.414615,-5.157858,0.114504,-0.580153,-0.580153,-5.531361,4.429217,-0.100771,-159.1066,-2.6801,88.1758
9654,55.590812,37.672637,167.500000,0.000000,6,1,-0.165084,0.562332,-5.326739,-0.244275,-0.412214,-0.549618,-5.155907,4.279425,-0.066139,-158.5958,-2.7090,88.1991
9754,55.590812,37.672637,167.500000,0.000000,6,1,-0.141594,0.544463,-5.149620,-0.954198,-0.801527,-0.809160,-5.013816,4.246872,-0.030925,-158.1579,-2.7114,88.2606
9854,55.590812,37.672637,167.500000,0.000000,6,1,-0.151231,0.528976,-5.219644,-1.122137,-0.847328,-1.412214,-5.277346,4.497481,0.291364,-157.7395,-2.7327,88.3798
9954,55.590812,37.672637,167.500000,0.000000,6,1,-0.177733,0.361604,-5.302613,-0.343511,-0.198473,-0.931298,-5.644216,4.529842,0.971914,-157.2399,-2.7964,88.4295
10054,55.590812,37.672637,167.500000,0.000000,6,1,-0.212065,0.251412,-5.244946,-0.923664,-0.374046,0.038168,-5.775155,4.472962,1.218797,-156.7944,-2.8066,88.3961
10155,55.590812,37.672637,167.500000,0.000000,6,1,-0.100033,0.387812,-5.313205,-1.007634,-0.175573,-0.396947,-6.087576,4.547180,1.143878,-156.3544,-2.8524,88.3948
10255,55.590812,37.672637,167.500000,0.000000,6,1,-0.148821,0.322888,-5.323208,-0.763359,0.435115,-0.190840,-5.990236,4.512689,1.292020,-155.8922,-2.9453,88.3495
10355,55.590812,37.672637,167.500000,0.000000,6,1,-0.195200,0.401511,-5.297317,-0.740458,-0.022901,-0.152672,-5.666644,4.351350,1.306427,-155.4283,-2.9945,88.3188
10455,55.590812,37.672637,167.500000,0.000000,6,1,-0.149424,0.401511,-5.372048,-0.923664,0.099237,-0.564885,-5.491301,4.430215,1.660731,-154.9845,-3.0719,88.3201
10555,55.590812,37.672637,167.500000,0.000000,6,1,-0.179540,0.379473,-5.372636,-1.145038,0.068702,0.068702,-5.338024,4.427269,1.626970,-154.5597,-3.1195,88.2647
10655,55.590812,37.672637,167.500000,0.000000,6,1,-0.179540,0.461074,-5.313205,-1.038168,-0.007634,-0.015267,-5.217080,4.426561,1.482521,-154.1248,-3.1634,88.2198
10755,55.590812,37.672637,167.500000,0.000000,6,1,-0.131354,0.424145,-5.273779,-0.816794,-0.343511,0.251908,-5.181408,4.746156,1.461236,-153.6671,-3.1650,88.1654
10855,55.590812,37.672637,167.500000,0.000000,6,1,-0.136775,0.361008,-5.262011,-0.503817,0.229008,-0.229008,-5.441161,4.555432,1.665038,-153.1792,-3.2390,88.1284
10955,55.590812,37.672637,167.500000,0.000000,6,1,-0.166289,0.350882,-5.277899,-0.274809,0.213740,-0.091603,-5.518810,4.446513,1.851220,-152.6676,-3.3049,88.0792
11055,55.590812,37.672637,167.500000,0.000000,6,1,-0.209054,0.393768,-5.179042,-0.404580,-0.473282,-0.167939,-5.526889,4.330018,2.034434,-152.1711,-3.3131,88.0680
11155,55.590812,37.672637,167.500000,0.000000,6,1,-0.180744,0.399129,-5.206110,-0.412214,-0.450382,-0.114504,-5.314468,4.427877,2.241744,-151.6750,-3.3207,88.0510
11255,55.590812,37.672637,167.500000,0.000000,6,1,-0.196405,0.390790,-5.323208,-0.206107,-0.541985,-0.099237,-5.620268,4.516973,2.124480,-151.1585,-3.3194,88.0369
11355,55.590812,37.672637,167.500000,0.000000,6,1,-0.137980,0.436653,-5.260245,-0.595420,-0.083969,-0.053435,-5.520252,4.648677,2.134530,-150.6794,-3.3558,87.9966
11545,55.590812,37.672637,167.500000,0.000000,6,1,-0.134968,0.347309,-5.459725,-1.435114,0.274809,-0.366412,-5.613258,4.858141,2.394198,-149.9296,-3.5127,87.9371
11645,55.590812,37.672637,167.500000,0.000000,6,1,-0.148821,0.366964,-5.294963,-1.213740,0.274809,0.045802,-5.638986,4.661621,2.503551,-149.5105,-3.5742,87.8692
11745,55.590812,37.672637,167.500000,0.000000,6,1,-0.163879,0.337778,-5.265542,-0.595420,0.038168,0.267176,-5.635791,4.596905,2.604948,-149.0290,-3.6035,87.7940
11845,55.590812,37.672637,167.500000,0.000000,6,1,-0.150628,0.272855,-5.369695,-0.702290,0.351145,0.320611,-5.630699,4.582388,2.736738,-148.5569,-3.6561,87.6976
11945,55.590812,37.672637,167.500000,0.000000,6,1,-0.201826,0.309188,-5.284960,-0.564885,0.045802,-0.114504,-5.628635,4.557509,2.798254,-148.0743,-3.7049,87.6540
12045,55.590812,37.672637,167.500000,0.000000,6,1,-0.173517,0.346117,-5.289667,-0.435115,-0.259542,0.175573,-5.592713,4.516995,2.836926,-147.5781,-3.7120,87.6017
12145,55.590812,37.672637,167.500000,0.000000,6,1,-0.147014,0.338374,-5.266718,-0.755725,-0.007634,0.099237,-5.445559,4.508245,3.005759,-147.1135,-3.7439,87.5421
12246,55.590812,37.672637,167.500000,0.000000,6,1,-0.236158,0.280002,-5.302024,-0.114504,0.091603,0.099237,-5.541936,4.397200,3.115511,-146.5791,-3.7841,87.4762
12346,55.590812,37.672637,167.500000,0.000000,6,1,-0.184358,0.387812,-5.287313,-0.679389,0.030534,-0.053435,-5.366269,4.359516,3.135625,-146.1075,-3.8266,87.4267
12446,55.590812,37.672637,167.500000,0.000000,6,1,-0.206644,0.438440,-5.289667,-0.465649,-0.030534,-0.290076,-5.202113,4.386100,3.187127,-145.6159,-3.8770,87.3999
12546,55.590812,37.672637,167.500000,0.000000,6,1,-0.209656,0.419976,-5.283783,-0.480916,-0.366412,-0.236641,-5.001017,4.481801,3.247505,-145.1269,-3.8964,87.3873
12646,55.590812,37.672637,167.500000,0.000000,6,1,-0.144605,0.526594,-5.323797,-1.000000,-0.145038,-0.229008,-4.682844,4.545111,3.267364,-144.6888,-3.9335,87.3613
12746,55.590812,37.672637,167.500000,0.000000,6,1,-0.209656,0.414615,-5.316147,-0.290076,0.152672,-0.091603,-4.595577,4.607595,3.309047,-144.1777,-3.9865,87.3064
12846,55.590812,37.672637,167.500000,0.000000,6,1,-0.162675,0.470009,-5.252596,-0.595420,-0.114504,-0.114504,-4.509337,4.614433,3.355366,-143.6984,-4.0188,87.2686
12946,55.590812,37.672637,167.500000,0.000000,6,1,-0.207247,0.436058,-5.270837,-0.358779,-0.335878,-0.045802,-4.427312,4.658153,3.627562,-143.1958,-4.0289,87.2382
13046,55.590812,37.672637,167.500000,0.000000,6,1,-0.195200,0.450353,-5.243769,-0.175573,-0.213740,0.160305,-4.258738,4.598995,3.660864,-142.6733,-4.0361,87.1839
13146,55.590812,37.672637,167.500000,0.000000,6,1,-0.163879,0.470009,-5.218467,-0.229008,-0.007634,0.145038,-4.204771,4.513394,3.655097,-142.1552,-4.0601,87.1182
13246,55.590812,37.672637,167.500000,0.000000,6,1,-0.200621,0.463457,-5.206110,-0.488550,-0.335878,0.106870,-4.265333,4.524122,3.713355,-141.6648,-4.0599,87.0755
13346,55.590812,37.672637,167.500000,0.000000,6,1,-0.197007,0.465244,-5.243769,-1.175572,-0.106870,-0.236641,-4.242817,4.518057,3.754298,-141.2439,-4.0988,87.0455
13540,55.590812,37.672637,167.500000,0.000000,6,1,-0.177733,0.461074,-5.279664,-1.274809,-0.175573,0.213740,-4.354165,4.583750,3.922488,-140.4423,-4.1081,86.9269
13640,55.590812,37.672637,167.500000,0.000000,6,1,-0.148219,0.472987,-5.303790,-0.786260,0.045802,0.198473,-4.306806,4.573620,4.060194,-139.9793,-4.1301,86.8527
13740,55.590812,37.672637,167.500000,0.000000,6,1,-0.185563,0.414019,-5.259657,-0.473282,0.000000,0.061069,-4.376473,4.515561,4.123614,-139.4860,-4.1570,86.7918
13840,55.590812,37.672637,167.500000,0.000000,6,1,-0.139184,0.554588,-5.314970,-0.824427,-0.206107,-0.137405,-4.274632,4.597254,4.151599,-139.0298,-4.1807,86.7592
13940,55.590812,37.672637,167.500000,0.000000,6,1,-0.190382,0.464648,-5.227293,-0.534351,-0.274809,-0.122137,-4.206080,4.661046,4.235674,-138.5448,-4.1979,86.7299
14040,55.590812,37.672637,167.500000,0.000000,6,1,-0.174119,0.535528,-5.250831,0.137405,-0.458015,-0.221374,-4.000127,4.697509,4.265235,-137.9940,-4.2078,86.7200
14140,55.590812,37.672637,167.500000,0.000000,6,1,-0.142798,0.607004,-5.207286,-0.381679,-0.152672,-0.541985,-3.742499,4.767673,4.321218,-137.4954,-4.2618,86.7133
14240,55.590812,37.672637,167.500000,0.000000,6,1,-0.133161,0.587944,-5.300848,-0.519084,-0.335878,-0.198473,-3.582404,4.766667,4.455409,-137.0095,-4.2790,86.6932
14340,55.590812,37.672637,167.500000,0.000000,6,1,-0.177733,0.493238,-5.180807,-0.343511,-0.404580,0.061069,-3.488526,4.704100,4.568843,-136.5050,-4.2732,86.6588
14440,55.590812,37.672637,167.500000,0.000000,6,1,-0.178937,0.578414,-5.303202,-0.435115,-0.007634,-0.030534,-3.369121,4.740920,4.538077,-136.0081,-4.3021,86.6035
14540,55.590812,37.672637,167.500000,0.000000,6,1,-0.154845,0.575436,-5.281429,-0.358779,-0.030534,-0.167939,-3.290002,4.787218,4.543816,-135.5044,-4.3384,86.5595
14640,55.590812,37.672637,167.500000,0.000000,6,1,-0.117501,0.617725,-5.327916,-0.885496,-0.091603,-0.038168,-3.145258,4.812277,4.623372,-135.0529,-4.3610,86.5102
14740,55.590812,37.672637,167.500000,0.000000,6,1,-0.165084,0.528381,-5.276721,-1.022901,-0.198473,0.129771,-3.185883,4.780563,4.686678,-134.6148,-4.3637,86.4565
14840,55.590812,37.672637,167.500000,0.000000,6,1,-0.147014,0.561736,-5.335566,-0.625954,0.160305,0.198473,-3.156173,4.801004,4.707224,-134.1347,-4.3861,86.3722
14940,55.590812,37.672637,167.500000,0.000000,6,1,-0.183756,0.511703,-5.287313,-0.419847,0.099237,0.251908,-3.153664,4.782052,4.783370,-133.6340,-4.3998,86.2884
15040,55.590812,37.672637,167.500000,0.000000,6,1,-0.184358,0.551610,-5.169627,-0.931298,-0.267176,0.091603,-3.175581,4.714141,4.823930,-133.1873,-4.3992,86.2422
15140,55.590812,37.672637,167.500000,0.000000,6,1,-0.166891,0.594496,-5.366753,-0.732824,0.053435,-0.038168,-3.219585,4.760422,4.911495,-132.7196,-4.4296,86.1814
15240,55.590812,37.672637,167.500000,0.000000,6,1,-0.168698,0.573649,-5.211406,-0.076336,-0.022901,-0.068702,-3.146834,4.752495,4.978575,-132.1868,-4.4566,86.1281
15340,55.590812,37.672637,167.500000,0.000000,6,1,-0.157856,0.537911,-5.194341,-0.938931,-0.580153,-0.137405,-3.219484,4.986264,5.214420,-131.7438,-4.4510,86.1206
15440,55.590805,37.672653,169.399993,0.000000,8,1,-0.173517,0.473583,-5.302024,-0.488550,-0.167939,-0.221374,-3.316824,4.998012,5.233136,-131.2538,-4.4789,86.0879
15555,55.590805,37.672653,169.399993,0.000000,8,1,-0.118103,0.621895,-5.207286,-1.038168,-0.358779,0.160305,-3.114413,5.115974,5.250506,-130.7526,-4.4631,86.0377
15655,55.590805,37.672653,169.399993,0.000000,8,1,-0.098226,0.517659,-5.259069,-0.427481,-0.244275,0.221374,-3.268445,5.202538,5.351550,-130.2546,-4.4518,85.9814
15755,55.590805,37.672653,169.399993,0.000000,8,1,-0.160868,0.490856,-5.257303,-0.580153,0.099237,-0.091603,-3.310333,5.163587,5.393696,-129.7715,-4.4861,85.9190
15855,55.590805,37.672653,169.399993,0.000000,8,1,-0.118103,0.646911,-5.303790,-0.496183,-0.076336,-0.183206,-3.222090,5.182732,5.460856,-129.2814,-4.5157,85.8758
15955,55.590805,37.672653,169.399993,0.000000,8,1,-0.142798,0.597474,-5.168449,-0.458015,-0.412214,-0.091603,-3.142986,5.139629,5.540329,-128.7891,-4.5168,85.8527
16055,55.590805,37.672653,169.399993,0.000000,8,1,-0.144605,0.558162,-5.232589,-0.435115,-0.343511,-0.083969,-3.203292,5.130783,5.619968,-128.2941,-4.5213,85.8237
16155,55.590805,37.672653,169.399993,0.000000,8,1,-0.127138,0.626064,-5.309085,-0.427481,-0.053435,-0.114504,-3.124312,5.155572,5.631837,-127.7966,-4.5458,85.7736
16256,55.590805,37.672653,169.399993,0.000000,8,1,-0.169300,0.511703,-5.250242,-0.503817,-0.160305,0.091603,-3.182996,5.147656,5.746324,-127.3015,-4.5470,85.7187
16356,55.590805,37.672653,169.399993,0.000000,8,1,-0.082566,0.645124,-5.303790,-0.702290,-0.152672,-0.183206,-3.059665,5.192024,5.785066,-126.8323,-4.5702,85.6804
16456,55.590805,37.672653,169.399993,0.000000,8,1,-0.084373,0.631425,-5.213759,-0.801527,-0.114504,-0.412214,-3.107311,5.267512,5.901761,-126.3740,-4.6137,85.6524
16556,55.590805,37.672653,169.399993,0.000000,8,1,-0.160868,0.566501,-5.364987,-0.893130,-0.305344,-0.259542,-3.226817,5.415984,6.221965,-125.9252,-4.6334,85.6306
16656,55.590805,37.672653,169.399993,0.000000,8,1,-0.117501,0.496217,-5.154915,-0.183206,-0.213740,0.290076,-3.135516,5.357190,6.279393,-125.4023,-4.6137,85.5690
16756,55.590805,37.672653,169.399993,0.000000,8,1,-0.090396,0.680862,-5.337330,-1.015267,-0.175573,-0.511450,-3.173227,5.407130,6.479712,-124.9661,-4.6611,85.5507
16856,55.590805,37.672653,169.399993,0.000000,8,1,-0.148821,0.529572,-5.290844,-0.251908,0.129771,-0.053435,-3.161745,5.330041,6.503488,-124.4493,-4.6881,85.4807
16956,55.590805,37.672653,169.399993,0.000000,8,1,-0.079555,0.648103,-5.220232,-1.000000,-0.190840,-0.244275,-3.076329,5.350977,6.655364,-124.0103,-4.7122,85.4478
17056,55.590805,37.672653,169.399993,0.000000,8,1,-0.133763,0.549823,-5.296729,-0.404580,0.030534,0.068702,-3.092020,5.301415,6.837714,-123.5088,-4.7224,85.3789
17156,55.590805,37.672653,169.399993,0.000000,8,1,-0.162675,0.594496,-5.210228,-0.099237,-0.045802,-0.351145,-3.055081,5.126755,6.927054,-122.9791,-4.7629,85.3393
17256,55.590805,37.672653,169.399993,0.000000,8,1,-0.138582,0.640359,-5.243181,-0.618321,-0.175573,-0.496183,-2.975994,5.128165,7.128513,-122.5029,-4.8082,85.3182
17356,55.590805,37.672653,169.399993,0.000000,8,1,-0.156049,0.590326,-5.276133,-0.526718,-0.129771,0.450382,-2.915534,5.086868,7.279368,-122.0129,-4.7757,85.2421
17541,55.590805,37.672653,169.399993,0.000000,8,1,-0.156652,0.562927,-5.263776,-0.641221,-0.267176,-0.068702,-2.875892,5.021905,7.302558,-121.1338,-4.7825,85.1743
17641,55.590805,37.672653,169.399993,0.000000,8,1,-0.070520,0.659420,-5.261423,-0.961832,-0.274809,0.061069,-2.778637,5.008884,7.292003,-120.6901,-4.7742,85.1316
17741,55.590805,37.672653,169.399993,0.000000,8,1,-0.159663,0.588539,-5.242004,-0.603053,-0.122137,-0.274809,-2.806904,5.028141,7.426766,-120.2109,-4.8022,85.0928
17841,55.590805,37.672653,169.399993,0.000000,8,1,-0.147014,0.595091,-5.280841,-0.427481,-0.213740,-0.038168,-2.921328,5.071873,7.488738,-119.7138,-4.8049,85.0499
17941,55.590805,37.672653,169.399993,0.000000,8,1,-0.123524,0.556375,-5.264953,-1.000000,-0.076336,0.183206,-2.905542,5.137347,7.603970,-119.2720,-4.7947,84.9840
18041,55.590805,37.672653,169.399993,0.000000,8,1,-0.084373,0.578414,-5.305555,-0.961832,-0.076336,0.366412,-2.945376,5.134278,7.660710,-118.8256,-4.7679,84.9093
18141,55.590805,37.672653,169.399993,0.000000,8,1,-0.110875,0.530763,-5.297905,-0.412214,-0.061069,0.274809,-2.952319,5.186680,7.755528,-118.3246,-4.7494,84.8379
18241,55.590805,37.672653,169.399993,0.000000,8,1,-0.173517,0.645124,-5.177865,-0.374046,-0.022901,0.030534,-2.792651,5.090147,7.675121,-117.8205,-4.7535,84.7747
18341,55.590805,37.672653,169.399993,0.000000,8,1,-0.118103,0.645720,-5.284371,-1.259542,-0.335878,0.038168,-2.889362,5.301293,7.743005,-117.4072,-4.7420,84.7391
18441,55.590805,37.672653,169.399993,0.000000,8,1,-0.123524,0.515872,-5.283195,-0.259542,0.099237,0.480916,-2.984277,5.291703,7.683542,-116.8891,-4.7106,84.6443
18541,55.590805,37.672653,169.399993,0.000000,8,1,-0.117501,0.671332,-5.277899,-0.458015,-0.190840,-0.183206,-2.849689,5.402703,7.703035,-116.3954,-4.7248,84.6058
18641,55.590805,37.672653,169.399993,0.000000,8,1,-0.140991,0.545058,-5.221997,-0.832061,-0.137405,0.091603,-2.853071,5.364558,7.835256,-115.9378,-4.7163,84.5502
18741,55.590805,37.672653,169.399993,0.000000,8,1,-0.076543,0.649294,-5.310851,-0.671756,-0.068702,0.229008,-2.810160,5.375788,7.834076,-115.4631,-4.6980,84.4825
18841,55.590805,37.672653,169.399993,0.000000,8,1,-0.140991,0.545654,-5.248476,-0.740458,-0.015267,-0.129771,-2.820711,5.351550,7.946137,-114.9962,-4.7139,84.4254
18941,55.590805,37.672653,169.399993,0.000000,8,1,-0.087385,0.645124,-5.258481,-0.763359,-0.068702,-0.114504,-2.816853,5.387484,7.983202,-114.5319,-4.7256,84.3724
19041,55.590805,37.672653,169.399993,0.000000,8,1,-0.067508,0.585561,-5.267307,-0.916030,-0.206107,0.244275,-2.830198,5.426453,8.097244,-114.0826,-4.6986,84.3171
19141,55.590805,37.672653,169.399993,0.000000,8,1,-0.119308,0.573053,-5.307320,-0.541985,0.061069,-0.007634,-2.907260,5.418459,8.121981,-113.5948,-4.7050,84.2477
19241,55.590805,37.672653,169.399993,0.000000,8,1,-0.106057,0.600452,-5.266130,-0.725191,-0.076336,-0.099237,-2.874534,5.432198,8.197494,-113.1267,-4.7138,84.1945
19341,55.590805,37.672653,169.399993,0.000000,8,1,-0.103045,0.570670,-5.236120,-0.687023,-0.160305,0.335878,-2.915021,5.415863,8.262259,-112.6540,-4.6788,84.1321
19441,55.590805,37.672672,170.800003,0.000000,8,1,nan,nan,nan,nan,nan,nan,0.000000,0.000000,0.000000,nan,nan,nan
19548,55.590805,37.672672,170.800003,0.000000,8,1,-0.089192,0.549228,-5.236120,-0.725191,-0.175573,-0.145038,-2.952531,5.523733,8.513895,-112.1541,-4.6877,84.0868
19648,55.590805,37.672672,170.800003,0.000000,8,1,-0.076543,0.606408,-5.229058,-0.679389,-0.351145,0.213740,-2.966272,5.511755,8.543239,-111.6825,-4.6558,84.0473
19748,55.590805,37.672672,170.800003,0.000000,8,1,-0.098226,0.638572,-5.234354,-0.648855,-0.213740,-0.274809,-2.959375,5.548962,8.635722,-111.2083,-4.6741,84.0131
19848,55.590805,37.672672,170.800003,0.000000,8,1,-0.113887,0.633212,-5.320854,-0.541985,0.022901,-0.389313,-2.968694,5.579421,8.693952,-110.7219,-4.7113,83.9607
19948,55.590805,37.672672,170.800003,0.000000,8,1,-0.094010,0.663589,-5.214936,-0.580153,-0.274809,-0.244275,-2.864214,5.504174,8.777894,-110.2412,-4.7241,83.9310
20048,55.590805,37.672672,170.800003,0.000000,8,1,-0.090999,0.514681,-5.246123,-0.694656,-0.145038,0.229008,-2.920013,5.525771,8.906579,-109.7696,-4.6965,83.8726
20148,55.590805,37.672672,170.800003,0.000000,8,1,-0.103045,0.627256,-5.249654,-0.580153,-0.244275,-0.267176,-2.841460,5.592089,8.976673,-109.2887,-4.7119,83.8405
20248,55.590805,37.672672,170.800003,0.000000,8,1,-0.080157,0.571862,-5.265542,-0.580153,-0.068702,-0.038168,-2.868750,5.578512,9.167083,-108.8058,-4.7112,83.7841
20348,55.590805,37.672672,170.800003,0.000000,8,1,-0.092203,0.537315,-5.310851,-0.969466,-0.152672,0.145038,-2.930278,5.621925,9.291343,-108.3620,-4.6899,83.7298
20448,55.590805,37.672672,170.800003,0.000000,8,1,-0.078952,0.646316,-5.250242,-0.610687,-0.015267,-0.022901,-2.887434,5.554544,9.258436,-107.8817,-4.6885,83.6679
20548,55.590805,37.672672,170.800003,0.000000,8,1,-0.132559,0.541485,-5.281429,-0.541985,-0.022901,0.045802,-2.936741,5.596180,9.347673,-107.3945,-4.6797,83.6046
20648,55.590805,37.672672,170.800003,0.000000,8,1,-0.033176,0.671332,-5.345569,-0.969466,-0.045802,-0.015267,-2.767750,5.620649,9.446146,-106.9503,-4.6756,83.5454
20748,55.590805,37.672672,170.800003,0.000000,8,1,-0.096419,0.555780,-5.250831,-0.511450,0.068702,0.076336,-2.799977,5.554146,9.474546,-106.4592,-4.6655,83.4725
20848,55.590805,37.672672,170.800003,0.000000,8,1,-0.059678,0.720174,-5.203167,-1.145038,-0.190840,-0.068702,-2.718400,5.675007,9.511632,-106.0339,-4.6615,83.4289
20948,55.590805,37.672672,170.800003,0.000000,8,1,-0.124729,0.520637,-5.383229,-0.519084,0.167939,0.213740,-2.858943,5.683279,9.658294,-105.5425,-4.6398,83.3429
21048,55.590805,37.672672,170.800003,0.000000,8,1,-0.076543,0.575436,-5.274957,-0.664122,-0.015267,-0.076336,-2.816483,5.744487,9.708774,-105.0678,-4.6404,83.2825
21148,55.590805,37.672672,170.800003,0.000000,8,1,-0.032573,0.603430,-5.306144,-0.900763,-0.091603,0.198473,-2.801075,5.730429,9.756068,-104.6167,-4.6121,83.2225
21248,55.590805,37.672672,170.800003,0.000000,8,1,-0.068713,0.606408,-5.242004,-0.740458,-0.267176,-0.160305,-2.788077,5.766293,9.820559,-104.1517,-4.6137,83.1887
21348,55.590805,37.672672,170.800003,0.000000,8,1,-0.084975,0.602835,-5.298494,-0.541985,0.030534,0.099237,-2.808060,5.735124,9.897903,-103.6641,-4.5969,83.1196
21535,55.590805,37.672672,170.800003,0.000000,8,1,-0.066906,0.611174,-5.309674,-0.984733,0.061069,-0.183206,-2.787447,5.807953,10.054669,-102.8356,-4.6168,82.9974
21635,55.590805,37.672672,170.800003,0.000000,8,1,-0.084975,0.561140,-5.248476,-0.488550,-0.076336,0.160305,-2.817461,5.704819,10.043764,-102.3434,-4.5902,82.9378
21735,55.590805,37.672672,170.800003,0.000000,8,1,-0.077145,0.629638,-5.267895,-0.664122,-0.129771,-0.198473,-2.788771,5.767037,10.094757,-101.8697,-4.5971,82.8913
21835,55.590805,37.672672,170.800003,0.000000,8,1,-0.058473,0.599856,-5.265542,-0.854962,-0.251908,0.137405,-2.812254,5.778256,10.173502,-101.4157,-4.5682,82.8499
21935,55.590805,37.672672,170.800003,0.000000,8,1,-0.098829,0.616534,-5.232589,-0.290076,-0.038168,-0.198473,-2.757694,5.726277,10.226916,-100.9039,-4.5760,82.7943
22035,55.590805,37.672672,170.800003,0.000000,8,1,-0.088589,0.569479,-5.241415,-0.488550,-0.412214,-0.251908,-2.765064,5.885721,10.382289,-100.4151,-4.5817,82.7765
22135,55.590805,37.672672,170.800003,0.000000,8,1,-0.042211,0.557567,-5.260834,-0.312977,-0.473282,0.152672,-2.695282,6.085181,10.451717,-99.9086,-4.5464,82.7575
22235,55.590805,37.672672,170.800003,0.000000,8,1,0.003566,0.710048,-5.273191,-0.709924,-0.099237,-0.244275,-2.404874,6.337380,10.591464,-99.4394,-4.5562,82.7084
22335,55.590805,37.672672,170.800003,0.000000,8,1,-0.009083,0.608791,-5.271426,-1.076336,-0.030534,-0.343511,-2.580151,6.383365,10.939778,-99.0064,-4.5767,82.6541
22435,55.590805,37.672672,170.800003,0.000000,8,1,-0.066906,0.594496,-5.277310,-1.106870,-0.045802,-0.450382,-2.685760,6.460599,11.342988,-98.5767,-4.6070,82.6028
22535,55.590805,37.672672,170.800003,0.000000,8,1,-0.003060,0.632021,-5.433834,-0.114504,0.206107,-0.122137,-2.571393,6.528524,11.639110,-98.0453,-4.6080,82.5215
22635,55.590805,37.672672,170.800003,0.000000,8,1,-0.000650,0.636786,-5.160212,-0.465649,0.122137,-0.312977,-1.962606,6.467115,11.868390,-97.5499,-4.6261,82.4511
22735,55.590805,37.672672,170.800003,0.000000,8,1,-0.098829,0.545058,-5.143147,-1.351145,0.022901,-0.145038,-2.473787,6.418286,12.328829,-97.1437,-4.6258,82.3883
22835,55.590805,37.672672,170.800003,0.000000,8,1,-0.113284,0.434271,-5.242004,-0.870229,-0.221374,0.229008,-3.080338,6.547544,12.657466,-96.6910,-4.5849,82.3453
22935,55.590805,37.672672,170.800003,0.000000,8,1,-0.033778,0.599856,-5.428538,-0.671756,-0.305344,0.022901,-3.224090,6.902549,12.732617,-96.2193,-4.5631,82.3134
23035,55.590805,37.672672,170.800003,0.000000,8,1,14.282789,3.334402,6.153633,-0.236641,-0.190840,0.038168,-42.858604,-4.670068,171.182846,-95.7032,-4.5408,82.2700
23135,55.590805,37.672672,170.800003,0.000000,8,1,0.008384,0.509320,-5.215524,-0.412214,-0.305344,-0.137405,-2.782497,7.197078,12.849063,-95.2058,-4.5345,82.2400
23235,55.590805,37.672672,170.800003,0.000000,8,1,0.036693,0.699923,-5.304966,-0.458015,-0.076336,-0.099237,-2.669687,7.235605,12.888969,-94.7111,-4.5261,82.1868
23335,55.590805,37.672672,170.800003,0.000000,8,1,0.016817,0.637381,-5.190810,-0.931298,-0.305344,-0.442748,-2.716884,7.292004,12.952140,-94.2658,-4.5497,82.1592
23435,55.590808,37.672691,172.199996,0.000000,8,1,0.066207,0.611174,-5.417357,-0.496183,0.137405,0.519084,-2.818922,7.277568,13.046846,-93.7729,-4.4802,82.0804
23556,55.590808,37.672691,172.199996,0.000000,8,1,-0.002457,0.485495,-5.225528,-0.526718,0.000000,0.458015,-2.874632,7.056680,12.982007,-93.1817,-4.4017,82.0030
23656,55.590808,37.672691,172.199996,0.000000,8,1,-0.054859,0.509320,-5.407354,-0.580153,0.465649,0.984733,-3.245806,6.669816,12.642750,-92.6949,-4.2859,81.8903
23756,55.590808,37.672691,172.199996,0.000000,8,1,0.010191,0.870869,-5.120198,0.610687,-0.114504,1.297710,-2.251602,6.314424,11.641205,-92.0935,-4.1354,81.8355
23856,55.590808,37.672691,172.199996,0.000000,8,1,-0.147617,0.521233,-5.249065,0.755725,0.839695,1.305343,-2.080830,5.948788,10.530754,-91.4711,-3.9866,81.6867
23956,55.590808,37.672691,172.199996,0.000000,8,1,-0.052450,0.708857,-5.080184,-0.297710,0.213740,0.900763,-1.639403,5.354239,9.736891,-90.9589,-3.8753,81.6030
24056,55.590808,37.672691,172.199996,0.000000,8,1,-0.090396,0.897077,-5.191399,-1.763359,0.320611,0.778626,-1.803147,4.939208,8.990005,-90.5927,-3.7758,81.5096
24156,55.590808,37.672691,172.199996,0.000000,8,1,-0.096419,0.565905,-5.257303,-0.816794,0.442748,0.549618,-2.745357,4.595283,8.413327,-90.1312,-3.6987,81.4049
24256,55.590808,37.672691,172.199996,0.000000,8,1,-0.183154,0.527785,-5.462079,-0.694656,0.603053,0.694656,-3.202610,4.259574,8.070234,-89.6568,-3.6061,81.2848
24356,55.590808,37.672691,172.199996,0.000000,8,1,-0.150026,0.384833,-5.356749,0.083969,0.893130,0.381679,-3.059925,3.608708,7.930521,-89.1028,-3.5434,81.1361
24456,55.590808,37.672691,172.199996,0.000000,8,1,-0.236158,0.662993,-5.192575,-0.931298,0.236641,-0.137405,-2.776878,3.138976,7.837156,-88.6545,-3.5327,81.0527
24556,55.590808,37.672691,172.199996,0.000000,8,1,-0.302413,0.595091,-4.992507,-1.343511,-0.671756,0.114504,-2.754311,3.099569,7.723630,-88.2531,-3.4985,81.0611
24656,55.590808,37.672691,172.199996,0.000000,8,1,-0.256637,0.643338,-5.216701,-0.549618,-0.618321,0.175573,-3.058435,3.247660,7.552965,-87.7720,-3.4582,81.0646
24756,55.590808,37.672691,172.199996,0.000000,8,1,-0.256637,0.554588,-5.330269,-0.587786,-0.396947,0.145038,-3.284536,3.661981,7.586387,-87.2933,-3.4200,81.0461
24856,55.590808,37.672691,172.199996,0.000000,8,1,-0.250614,0.493834,-5.209640,-0.709924,-0.351145,-0.007634,-3.458705,3.740301,7.714177,-86.8267,-3.3966,81.0226
24956,55.590808,37.672691,172.199996,0.000000,8,1,-0.173517,0.536124,-5.222586,-0.412214,-0.236641,-0.038168,-3.544072,4.047762,7.743014,-86.3295,-3.3755,80.9877
25056,55.590808,37.672691,172.199996,0.000000,8,1,-0.187370,0.469413,-5.427361,-0.442748,-0.160305,0.427481,-3.756563,4.190884,7.845530,-85.8352,-3.3070,80.9485
25156,55.590808,37.672691,172.199996,0.000000,8,1,-0.186165,0.523616,-5.161388,-0.549618,-0.114504,0.114504,-3.649797,4.014101,7.792542,-85.3513,-3.2691,80.9029
25256,55.590808,37.672691,172.199996,0.000000,8,1,-0.224714,0.499195,-5.240239,-0.885496,-0.274809,-0.129771,-3.776576,4.186820,7.888754,-84.9018,-3.2564,80.8715
25356,55.590808,37.672691,172.199996,0.000000,8,1,-0.172312,0.590326,-5.290844,-0.572519,-0.251908,-0.351145,-3.706197,4.182203,7.892519,-84.4207,-3.2654,80.8359
25534,55.590808,37.672691,172.199996,0.000000,8,1,nan,nan,nan,nan,nan,nan,0.000000,0.000000,0.000000,nan,nan,nan
25634,55.590808,37.672691,172.199996,0.000000,8,1,-0.089192,0.544463,-5.434422,-1.076336,0.015267,-0.137405,-3.907488,4.500449,8.573325,-83.9886,-3.2501,80.7758
25734,55.590808,37.672691,172.199996,0.000000,8,1,-0.194598,0.455118,-5.246123,-0.870229,0.053435,-0.290076,-3.845540,4.455695,8.618547,-83.5356,-3.2491,80.7103
25834,55.590808,37.672691,172.199996,0.000000,8,1,-0.127740,0.556375,-5.361456,-0.633588,0.007634,0.068702,-3.818658,4.439270,8.608861,-83.0595,-3.2125,80.6536
25934,55.590808,37.672691,172.199996,0.000000,8,1,-0.165084,0.527785,-5.190810,-0.885496,-0.389313,-0.450382,-3.799500,4.429777,8.769933,-82.6104,-3.2319,80.6301
26034,55.590808,37.672691,172.199996,0.000000,8,1,-0.196405,0.514681,-5.286725,-0.633588,-0.099237,-0.083969,-3.882545,4.515523,8.840289,-82.1348,-3.2110,80.5826
26134,55.590808,37.672691,172.199996,0.000000,8,1,-0.112080,0.646316,-5.284371,-0.938931,-0.183206,-0.412214,-3.817197,4.578027,8.960033,-81.6900,-3.2233,80.5389
26234,55.590808,37.672691,172.199996,0.000000,8,1,-0.166891,0.378281,-5.416769,-1.053435,0.137405,-0.137405,-3.889924,4.750336,9.307350,-81.2550,-3.2033,80.4675
26334,55.590808,37.672691,172.199996,0.000000,8,1,-0.225918,0.689797,-5.247300,-2.389313,1.099237,-0.358779,-3.628483,4.380424,9.120882,-80.9482,-3.1899,80.2976
26434,55.590808,37.672691,172.199996,0.000000,8,1,-0.145208,0.480134,-5.169038,-0.801527,-0.061069,-0.198473,-4.608684,3.973949,9.336923,-80.4892,-3.1783,80.2450
26534,55.590808,37.672691,172.199996,0.000000,8,1,-0.200019,0.546845,-5.476790,-0.152672,-0.145038,-0.679389,-4.637378,3.901639,9.718757,-79.9652,-3.2150,80.1927
26634,55.590808,37.672691,172.199996,0.000000,8,1,-0.385534,0.265111,-5.362633,0.603053,0.671756,-0.099237,-4.157705,3.507213,10.124042,-79.3618,-3.1795,80.0700
26734,55.590808,37.672691,172.199996,0.000000,8,1,-0.251818,0.609387,-5.190222,0.038168,0.274809,-0.343511,-2.846592,3.353794,10.168995,-78.8168,-3.1743,79.9820
26834,55.590808,37.672691,172.199996,0.000000,8,1,-0.280730,0.682054,-5.110194,-0.763359,0.053435,-0.022901,-2.357152,2.904625,10.186207,-78.3535,-3.1412,79.9222
26934,55.590808,37.672691,172.199996,0.000000,8,1,-0.338552,0.680267,-5.273191,-0.076336,-0.053435,-0.305344,-2.250524,2.883921,10.309635,-77.8219,-3.1374,79.8673
27034,55.590808,37.672691,172.199996,0.000000,8,1,-0.356622,0.619512,-5.300259,-0.099237,-0.045802,0.190840,-2.107411,2.790453,10.473991,-77.2931,-3.0846,79.8224
27134,55.590808,37.672691,172.199996,0.000000,8,1,-0.330722,0.617725,-5.227882,-0.267176,-0.267176,-0.076336,-1.868146,2.699691,10.530689,-76.7820,-3.0623,79.7936
27234,55.590808,37.672691,172.199996,0.000000,8,1,-0.289764,0.726130,-5.293198,-0.503817,0.122137,-0.076336,-1.555857,2.701260,10.651623,-76.2925,-3.0307,79.7271
27334,55.590808,37.672691,172.199996,0.000000,8,1,-0.367464,0.623086,-5.327327,-0.526718,0.175573,0.175573,-1.405335,2.689874,10.824304,-75.8055,-2.9728,79.6617
27435,55.590808,37.672691,172.199996,0.000000,8,1,nan,nan,nan,nan,nan,nan,0.000000,0.000000,0.000000,nan,nan,nan
27541,55.590812,37.672710,173.399993,0.000000,8,1,-0.369271,0.665972,-5.237885,-0.809160,0.213740,-0.038168,-1.187449,2.368453,10.912352,-75.3188,-2.9318,79.5834
27641,55.590812,37.672710,173.399993,0.000000,8,1,-0.277116,0.948301,-5.396763,-0.106870,0.229008,-0.137405,-0.689972,2.249083,10.670189,-74.7892,-2.9017,79.5058
27741,55.590812,37.672710,173.399993,0.000000,8,1,-0.397580,0.714813,-5.252596,-0.549618,-0.122137,0.091603,-0.372729,2.227259,10.817657,-74.3060,-2.8581,79.4684
27841,55.590812,37.672710,173.399993,0.000000,8,1,-0.378908,0.816666,-5.170215,-0.954198,-0.503817,0.061069,-0.178409,2.377147,10.689948,-73.8651,-2.8277,79.4674
27941,55.590812,37.672710,173.399993,0.000000,8,1,-0.301209,0.954853,-5.306732,-0.839695,-0.343511,-0.106870,-0.097765,2.727734,10.635299,-73.4117,-2.8088,79.4464
28041,55.590812,37.672710,173.399993,0.000000,8,1,-0.345780,0.802371,-5.211994,-0.465649,-0.450382,-0.129771,0.060936,2.902915,10.704898,-72.9214,-2.7951,79.4352
28141,55.590812,37.672710,173.399993,0.000000,8,1,-0.302413,0.844661,-5.214936,-0.694656,0.007634,0.442748,0.221791,3.063568,10.632893,-72.4528,-2.7130,79.3974
28241,55.590812,37.672710,173.399993,0.000000,8,1,-0.308436,0.924476,-5.250831,-1.167939,-0.152672,-0.114504,0.217572,3.126988,10.519598,-72.0315,-2.6885,79.3584
28341,55.590812,37.672710,173.399993,0.000000,8,1,-0.185563,0.914946,-5.434422,-0.664122,0.167939,0.099237,0.202546,3.079376,10.647155,-71.5587,-2.6335,79.2959
28441,55.590812,37.672710,173.399993,0.000000,8,1,-0.334336,0.767229,-5.199636,-0.664122,0.412214,-0.145038,0.325402,2.751581,10.880197,-71.0846,-2.5932,79.2028
28541,55.590812,37.672710,173.399993,0.000000,8,1,-0.329518,0.847639,-5.263776,-0.694656,0.068702,0.221374,0.285065,2.628878,10.858394,-70.6156,-2.5288,79.1546
28641,55.590812,37.672710,173.399993,0.000000,8,1,-0.344576,0.935793,-5.256715,-1.030534,-0.068702,-0.335878,0.438097,2.501664,11.009365,-70.1800,-2.5211,79.1012
28741,55.590812,37.672710,173.399993,0.000000,8,1,-0.424082,0.708261,-5.094307,-0.603053,0.412214,0.473282,0.372015,2.086112,11.126816,-69.7010,-2.4206,79.0303
28841,55.590812,37.672710,173.399993,0.000000,8,1,-0.368066,0.982848,-5.228470,-0.641221,-0.198473,0.183206,0.475759,2.083219,11.047622,-69.2278,-2.3680,79.0074
28941,55.590812,37.672710,173.399993,0.000000,8,1,-0.468654,0.713622,-5.156093,-0.946565,0.526718,0.366412,0.257840,1.977796,11.235372,-68.7828,-2.2721,78.9237
29041,55.590812,37.672710,173.399993,0.000000,8,1,-0.325301,0.906607,-5.247889,-1.259542,-0.122137,0.007634,0.233807,1.959087,11.172217,-68.3711,-2.2328,78.8881
29142,55.590812,37.672710,173.399993,0.000000,8,1,-0.425287,0.747573,-5.173157,-0.450382,-0.290076,0.549618,0.055562,1.639186,11.222205,-67.8749,-2.1482,78.8885
29242,55.590812,37.672710,173.399993,0.000000,8,1,-0.387943,0.876825,-5.276133,0.145038,0.083969,0.183206,0.274207,1.814626,11.064819,-67.3224,-2.0842,78.8412
29342,55.590812,37.672710,173.399993,0.000000,8,1,-0.436128,0.746382,-5.130790,-0.511450,-0.274809,-0.175573,0.099493,1.655949,11.228470,-66.8362,-2.0667,78.8135
29442,55.590812,37.672710,173.399993,0.000000,8,1,nan,nan,nan,nan,nan,nan,0.000000,0.000000,0.000000,nan,nan,nan
29548,55.590820,37.672714,174.000000,0.000000,11,1,-0.433117,0.714218,-5.286725,-0.656488,0.282443,0.076336,0.256996,1.654374,11.430440,-66.3348,-2.0000,78.7408
29648,55.590820,37.672714,174.000000,0.000000,11,1,-0.440345,0.775568,-5.257303,-0.893130,0.511450,0.061069,0.112501,1.324324,11.520684,-65.8847,-1.9285,78.6511
29748,55.590820,37.672714,174.000000,0.000000,11,1,-0.434924,0.817858,-5.376167,-0.061069,0.267176,0.465649,0.329831,1.457131,11.520175,-65.3529,-1.8296,78.6009
29848,55.590820,37.672714,174.000000,0.000000,11,1,-0.466245,0.739830,-5.116667,0.114504,-0.427481,0.038168,0.560665,1.455209,11.439799,-64.8050,-1.7982,78.5968
29948,55.590820,37.672714,174.000000,0.000000,11,1,-0.434322,0.883973,-5.086657,-0.832061,-0.320611,0.206107,0.623463,1.385795,11.396031,-64.3518,-1.7470,78.5904
30048,55.590820,37.672714,174.000000,0.000000,11,1,-0.489133,0.724344,-5.267307,-0.702290,0.229008,0.992366,0.275146,1.238131,11.117326,-63.8851,-1.6011,78.5694
30148,55.590820,37.672714,174.000000,0.000000,11,1,-0.456005,0.929241,-5.154327,1.007634,-0.297710,0.259542,0.303468,0.990185,10.694972,-63.2479,-1.5440,78.5643
30248,55.590820,37.672714,174.000000,0.000000,11,1,-0.544546,0.935197,-5.126082,-0.221374,0.282443,-0.473282,0.658926,0.514839,10.602358,-62.7313,-1.5258,78.4747
30348,55.590820,37.672714,174.000000,0.000000,11,1,-0.551172,0.915541,-5.207875,-0.442748,0.419847,0.236641,0.542168,0.090564,10.520769,-62.2375,-1.4376,78.4060
30448,55.590820,37.672714,174.000000,0.000000,11,1,-0.473472,1.078149,-5.261423,0.549618,-0.557252,-0.290076,1.343739,0.026085,10.321736,-61.6461,-1.4411,78.3995
30548,55.590820,37.672714,174.000000,0.000000,11,1,-0.527079,0.913754,-4.993096,-0.633588,-0.145038,-0.572519,1.752752,-0.112526,10.540575,-61.1718,-1.4496,78.3434
30648,55.590820,37.672714,174.000000,0.000000,11,1,-0.592732,0.875634,-5.079596,-1.015267,-0.267176,-0.068702,1.406653,-0.208067,10.626109,-60.7365,-1.4196,78.3222
30748,55.590820,37.672714,174.000000,0.000000,11,1,-0.555388,0.917924,-5.455018,-0.748092,-0.236641,0.198473,1.047398,0.009055,10.505490,-60.2748,-1.3646,78.3119
30848,55.590820,37.672714,174.000000,0.000000,11,1,-0.571048,1.023946,-5.373814,-0.091603,0.068702,0.229008,1.424795,-0.008540,10.258053,-59.7468,-1.2917,78.2770
30948,55.590820,37.672714,174.000000,0.000000,11,1,-0.486121,1.166302,-5.356160,0.145038,0.755725,-0.045802,2.441142,-0.187900,10.110654,-59.1937,-1.2072,78.1697
31048,55.590820,37.672714,174.000000,0.000000,11,1,-0.722231,1.040624,-5.344392,0.793893,0.809160,0.076336,3.370141,-0.713219,10.387768,-58.5759,-1.1083,78.0651
31148,55.590820,37.672714,174.000000,0.000000,11,1,-0.649350,1.147242,-5.137263,0.786260,0.473282,0.938931,4.240120,-1.550693,10.067774,-57.9604,-0.9527,78.0354
31248,55.590820,37.672714,174.000000,0.000000,11,1,-0.668624,1.439102,-5.273779,-1.183206,2.328244,0.229008,4.661846,-2.471966,9.628323,-57.5391,-0.7579,77.8124
31348,55.590820,37.672714,174.000000,0.000000,11,1,-0.990866,0.950684,-5.124317,0.145038,1.442748,-0.870229,4.190338,-4.308627,10.122705,-56.9857,-0.7015,77.6061
31448,55.590820,37.672714,174.000000,0.000000,11,1,-0.941476,1.055515,-5.069004,0.534351,1.908397,0.183206,5.357555,-5.562652,10.019399,-56.3940,-0.5294,77.4193
31568,55.590827,37.672721,174.699996,0.000000,11,1,-0.917383,1.118056,-5.217290,-1.427481,2.557252,0.259542,6.064039,-7.114836,10.256175,-55.9198,-0.2699,77.1375
31668,55.590827,37.672721,174.699996,0.000000,11,1,-1.042666,1.290194,-5.100191,-0.381679,1.816794,-0.206107,6.958324,-7.976426,10.291474,-55.4210,-0.1319,76.9394
31768,55.590827,37.672721,174.699996,0.000000,11,1,-1.116149,1.511769,-5.009572,-1.725191,0.610687,0.007634,7.250494,-8.296943,9.857035,-55.0571,-0.0436,76.8536
31868,55.590827,37.672721,174.699996,0.000000,11,1,-1.193848,1.418850,-4.956024,-1.099237,0.358779,0.053435,7.092897,-8.122697,9.509828,-54.6307,0.0345,76.7917
31968,55.590827,37.672721,174.699996,0.000000,11,1,-1.163130,1.524873,-5.207286,-2.312977,0.290076,-1.030534,6.389611,-8.365904,9.499152,-54.3257,0.0209,76.6728
32068,55.590827,37.672721,174.699996,0.000000,11,1,-1.225169,1.543337,-5.196694,-1.793893,-0.137405,-0.931298,5.818617,-8.336860,9.456614,-53.9689,-0.0091,76.5944
32168,55.590827,37.672721,174.699996,0.000000,11,1,-1.325154,1.293172,-5.141970,-1.145038,0.061069,-0.312977,5.158455,-8.454711,9.539508,-53.5471,0.0230,76.5363
32268,55.590827,37.672721,174.699996,0.000000,11,1,-1.096875,1.271133,-5.141970,0.389313,-0.381679,1.030534,5.216174,-8.502018,9.285255,-52.9718,0.1368,76.5943
32368,55.590827,37.672721,174.699996,0.000000,11,1,-0.914371,1.807202,-5.209052,-0.908397,-1.038168,-2.259542,6.331657,-7.397013,9.482336,-52.5264,-0.0515,76.5065
32468,55.590827,37.672721,174.699996,0.000000,11,1,-1.239625,1.246713,-5.070769,-0.152672,0.091603,-1.564885,6.482076,-7.335947,10.699413,-52.0052,-0.1150,76.3702
32568,55.590827,37.672721,174.699996,0.000000,11,1,-1.270945,1.210975,-4.893651,-0.992366,-0.572519,-0.916030,6.727315,-7.484769,11.614315,-51.5680,-0.1674,76.3258
32668,55.590827,37.672721,174.699996,0.000000,11,1,-1.316119,1.154390,-5.139616,-0.015267,0.045802,0.099237,6.515919,-7.660363,12.041865,-51.0332,-0.1016,76.2961
32768,55.590827,37.672721,174.699996,0.000000,11,1,-1.160721,1.412298,-4.929545,-0.740458,0.000000,0.190840,6.944231,-7.824150,12.011791,-50.5709,-0.0313,76.2763
32868,55.590827,37.672721,174.699996,0.000000,11,1,-1.158913,1.400386,-5.226705,-0.519084,-0.526718,0.366412,7.076101,-7.736167,12.074704,-50.0865,0.0190,76.3088
32968,55.590827,37.672721,174.699996,0.000000,11,1,-1.246250,1.676759,-4.865994,0.748092,-2.274809,0.183206,8.481798,-6.985110,11.680972,-49.4755,-0.0578,76.4635
33068,55.590827,37.672721,174.699996,0.000000,11,1,-1.289015,1.770273,-4.892473,-0.320611,-1.664122,-0.557252,8.852514,-6.295359,11.771075,-48.9714,-0.1524,76.5228
33168,55.590827,37.672721,174.699996,0.000000,11,1,-1.000503,1.568354,-4.948375,1.465649,-0.862595,-0.450382,9.587900,-5.771183,11.835201,-48.2885,-0.1865,76.5281
33268,55.590827,37.672721,174.699996,0.000000,11,1,-1.026403,1.471266,-4.884824,0.496183,-0.770992,1.450382,10.458914,-5.596911,11.342855,-47.7029,-0.0733,76.6534
33368,55.590827,37.672721,174.699996,0.000000,11,1,-1.037245,1.400981,-4.803031,0.877863,2.206107,1.213740,10.923248,-5.866140,9.816037,-47.0790,0.2226,76.5447
33562,55.590827,37.672721,174.699996,0.000000,11,1,-0.902927,1.613622,-5.058412,-1.496183,-0.984733,1.213740,9.172849,-6.551471,7.535297,-46.3275,0.3748,76.7913
33662,55.590827,37.672721,174.699996,0.000000,11,1,-0.903530,1.552867,-5.049585,-0.709924,0.022901,0.206107,9.109375,-6.152485,7.452202,-45.8623,0.4492,76.7767
33762,55.590827,37.672721,174.699996,0.000000,11,1,-0.959545,1.622556,-5.341450,-1.198473,1.320611,-0.297710,9.115457,-5.866724,7.008895,-45.4472,0.5783,76.6347
33862,55.590827,37.672721,174.699996,0.000000,11,1,-1.084226,1.501643,-5.171391,-0.778626,0.267176,-0.267176,9.133026,-5.943718,7.008821,-44.9894,0.6365,76.5707
33963,55.590827,37.672721,174.699996,0.000000,11,1,-1.063747,1.420042,-5.158446,1.473282,0.595420,1.427481,9.654582,-6.389281,6.974609,-44.2985,0.8398,76.6050
34063,55.590827,37.672721,174.699996,0.000000,11,1,-0.896302,1.679141,-5.018399,-0.244275,0.480916,0.702290,10.583892,-6.590335,6.664730,-43.7868,0.9820,76.5970
34163,55.590827,37.672721,174.699996,0.000000,11,1,-0.918588,1.788738,-4.835395,-1.412214,0.259542,-0.572519,10.794810,-6.795747,6.835094,-43.3932,1.0204,76.5130
34263,55.590827,37.672721,174.699996,0.000000,11,1,-1.089647,1.433741,-5.009572,-1.335878,0.580153,-0.015267,10.319819,-6.904841,7.270324,-42.9917,1.1209,76.4479
34363,55.590827,37.672721,174.699996,0.000000,11,1,-1.220350,1.518321,-5.093130,-0.984733,-0.366412,0.343511,9.761215,-6.965021,7.084577,-42.5534,1.1767,76.4742
34463,55.590827,37.672721,174.699996,0.000000,11,1,-1.148072,1.825667,-4.938372,-1.190840,0.167939,-0.366412,9.819989,-7.141627,6.701189,-42.1374,1.2240,76.4125
34563,55.590827,37.672721,174.699996,0.000000,11,1,-1.092056,1.681524,-5.061943,-0.190840,-0.435115,0.076336,9.760402,-7.126952,6.641484,-41.6200,1.2564,76.4244
34663,55.590827,37.672721,174.699996,0.000000,11,1,-1.040256,1.747639,-4.871879,-0.091603,-0.610687,-0.122137,10.353754,-7.062882,6.719417,-41.0927,1.2625,76.4333
34763,55.590827,37.672721,174.699996,0.000000,11,1,-1.140844,1.722622,-5.008984,-0.534351,-0.145038,0.122137,10.536825,-6.957836,6.549679,-40.6099,1.3197,76.4302
34863,55.590827,37.672721,174.699996,0.000000,11,1,-1.136628,1.737513,-4.807739,0.473282,-1.251908,-0.083969,11.027134,-7.082649,6.349854,-40.0250,1.2792,76.4836
34963,55.590827,37.672721,174.699996,0.000000,11,1,-1.096875,1.782781,-4.897769,-2.022901,0.175573,-0.564885,10.896052,-7.090629,6.274244,-39.6927,1.3170,76.4083
35063,55.590827,37.672721,174.699996,0.000000,11,1,-1.102295,1.631491,-5.040171,-1.190840,0.427481,0.290076,9.968333,-7.551605,5.949212,-39.2761,1.4291,76.3831
35163,55.590827,37.672721,174.699996,0.000000,11,1,-0.861367,2.100849,-5.223175,-2.664122,0.687023,-2.190840,9.833267,-7.183139,5.752032,-39.0120,1.4048,76.1498
35263,55.590827,37.672721,174.699996,0.000000,11,1,-1.042666,1.785164,-5.117256,-0.687023,-1.137405,-3.633588,8.864398,-7.232409,7.229864,-38.5496,1.1495,75.9181
35363,55.590827,37.672721,174.699996,0.000000,11,1,-1.130605,1.070406,-5.116079,-1.671756,0.244275,0.305344,8.257127,-6.638235,8.691720,-38.1807,1.2486,75.9078
35463,55.590835,37.672725,176.699996,0.000000,11,1,-1.111330,1.036455,-5.306144,-0.870229,-0.870229,1.816794,6.826287,-5.735778,7.464270,-37.7274,1.3529,76.0859
35572,55.590835,37.672725,176.699996,0.000000,11,1,-0.861969,1.518321,-5.212582,-2.137405,0.328244,0.740458,6.524356,-5.116470,6.011093,-37.3753,1.4973,76.1082
35672,55.590835,37.672725,176.699996,0.000000,11,1,-0.784270,1.299128,-5.129613,-2.603053,0.465649,1.213740,5.883584,-5.028175,5.423234,-37.0979,1.6693,76.1587
35772,55.590835,37.672725,176.699996,0.000000,11,1,-1.009538,1.047176,-5.373814,-1.450382,0.282443,-0.465649,4.480074,-5.318170,5.230049,-36.7088,1.7254,76.0869
35872,55.590835,37.672725,176.699996,0.000000,11,1,-0.864379,1.199062,-5.400881,-0.687023,0.725191,0.694656,4.360236,-5.303221,4.621466,-36.2413,1.8867,76.0825
35972,55.590835,37.672725,176.699996,0.000000,11,1,-0.907143,1.289598,-5.191399,-0.656488,0.351145,-0.274809,4.646780,-5.458880,4.262475,-35.7727,1.9607,76.0230
36072,55.590835,37.672725,176.699996,0.000000,11,1,-0.903530,1.145455,-5.112548,-0.969466,-0.106870,0.076336,4.450903,-5.568587,4.020253,-35.3335,2.0184,76.0193
36172,55.590835,37.672725,176.699996,0.000000,11,1,-0.819205,1.243734,-5.183749,-1.328244,0.007634,-0.458015,4.080533,-5.132978,4.062479,-34.9319,2.0547,75.9657
36272,55.590835,37.672725,176.699996,0.000000,11,1,-0.999299,0.944132,-5.143735,-1.274809,-0.335878,0.244275,3.474663,-5.229546,4.174280,-34.5222,2.1031,75.9897
36372,55.590835,37.672725,176.699996,0.000000,11,1,-1.011947,1.044198,-5.103722,-1.229008,-0.351145,0.557252,3.210427,-5.297023,3.905639,-34.1069,2.1678,76.0407
36472,55.590835,37.672725,176.699996,0.000000,11,1,-0.908348,1.075171,-5.253184,-0.167939,-0.114504,0.374046,3.037539,-5.421074,3.769215,-33.5865,2.2415,76.0639
36572,55.590835,37.672725,176.699996,0.000000,11,1,-0.942078,1.131160,-5.273779,-1.000000,0.580153,0.038168,3.611055,-5.365799,3.721780,-33.1519,2.3545,76.0214
36672,55.590835,37.672725,176.699996,0.000000,11,1,-0.842695,1.212166,-5.645671,0.816794,5.595420,1.198473,4.416182,-6.482342,3.478089,-32.5440,2.9522,75.8052
36772,55.590835,37.672725,176.699996,0.000000,11,1,-1.051700,1.059684,-5.475613,-0.786260,1.251908,0.267176,4.347024,-7.251523,3.341241,-32.0893,3.1350,75.7481
36872,55.590835,37.672725,176.699996,0.000000,11,1,-1.185416,1.349757,-5.243181,0.717557,0.450382,-0.480916,5.179252,-7.586566,3.409027,-31.4856,3.2108,75.6714
36972,55.590835,37.672725,176.699996,0.000000,11,1,-1.501634,1.440889,-5.239062,1.206107,1.694656,0.038168,6.792784,-8.449724,3.800286,-30.8342,3.4207,75.5755
37072,55.590835,37.672725,176.699996,0.000000,11,1,-1.490792,1.778016,-4.942491,-0.458015,0.625954,-0.954198,8.329766,-9.579011,4.485717,-30.3512,3.4891,75.4506
37172,55.590835,37.672725,176.699996,0.000000,11,1,-1.827490,1.824476,-5.187868,-1.137405,0.534351,-0.305344,8.166818,-10.554104,4.634947,-29.9326,3.5832,75.3870
37272,55.590835,37.672725,176.699996,0.000000,11,1,-1.980479,1.324740,-5.160212,-0.122137,1.190840,1.305343,7.593958,-12.749643,4.470655,-29.4056,3.8145,75.4319
37372,55.590835,37.672725,176.699996,0.000000,11,1,-1.904587,1.890591,-5.023106,1.145038,-3.450382,2.656489,8.895404,-13.898328,3.126816,-28.7292,3.7053,75.8235
37561,55.590835,37.672725,176.699996,0.000000,11,1,-1.045075,1.489730,-4.843634,-3.938931,-3.595420,6.351145,7.142782,-10.013736,-4.139311,-28.3706,3.8020,77.1896
37661,55.590835,37.672725,176.699996,0.000000,11,1,-0.345780,1.474840,-4.988977,-9.183207,0.328244,1.687023,5.266257,-7.192220,-5.953499,-28.7442,3.9749,77.3139
37761,55.590835,37.672725,176.699996,0.000000,11,1,-0.411433,0.830962,-4.847753,-8.694657,-1.160305,-0.427481,0.050321,-5.813142,-5.984305,-29.0767,3.9160,77.3237
37861,55.590835,37.672725,176.699996,0.000000,11,1,-0.869197,-0.002327,-4.458209,-4.824428,-4.358778,-2.137405,-5.301066,-4.273216,-4.590196,-29.0218,3.4945,77.3396
37961,55.590835,37.672725,176.699996,0.000000,11,1,-0.566230,-0.011262,-4.880116,-1.862595,-6.099236,-2.000000,-8.478566,-0.846344,-3.365650,-28.6656,2.9271,77.4500
38061,55.590835,37.672725,176.699996,0.000000,11,1,-0.119910,-0.461559,-5.493266,1.053435,-7.625954,1.137405,-8.888300,4.859356,-3.281490,-28.0029,2.3733,77.9043
38161,55.590835,37.672725,176.699996,0.000000,11,1,0.694428,-0.556265,-5.622722,4.083970,-0.526718,1.190840,-7.099580,9.341508,-5.793667,-27.0531,2.4452,78.0271
38261,55.590835,37.672725,176.699996,0.000000,11,1,0.870908,0.512299,-4.681225,-0.038168,-0.473282,-1.076336,-5.132487,10.016130,-7.147613,-26.5241,2.4181,77.9457
38361,55.590835,37.672725,176.699996,0.000000,11,1,1.164841,-0.771884,-5.733936,-4.877862,5.137404,6.702290,-4.394334,8.442393,-6.195969,-26.4576,3.2406,78.3107
38461,55.590835,37.672725,176.699996,0.000000,11,1,0.313761,0.615343,-4.715943,-0.007634,-2.625954,-1.312977,-6.150338,8.481761,-7.140520,-25.9224,3.0107,78.3029
38561,55.590835,37.672725,176.699996,0.000000,11,1,0.205946,0.236521,-5.568585,-3.259542,-0.618321,0.595420,-7.622814,10.282888,-7.293172,-25.7081,3.0447,78.3781
38661,55.590835,37.672725,176.699996,0.000000,11,1,0.341468,0.586157,-5.399705,-1.671756,0.908397,-2.236641,-7.564029,9.427667,-7.841374,-25.3522,3.0941,78.1317
38761,55.590835,37.672725,176.699996,0.000000,11,1,0.191490,0.180532,-5.382051,3.526718,4.236641,-0.099237,-8.140843,7.412966,-9.654885,-24.4744,3.5379,77.9395
38861,55.590835,37.672725,176.699996,0.000000,11,1,0.198718,0.123351,-5.446191,3.450382,6.877862,2.916031,-5.363942,3.287164,-11.048049,-23.5942,4.3488,77.9222
38961,55.590835,37.672725,176.699996,0.000000,11,1,-0.739096,0.771398,-4.893062,4.366412,1.221374,3.450382,-1.905341,-0.661024,-14.256399,-22.6002,4.6604,78.1901
39061,55.590835,37.672725,176.699996,0.000000,11,1,-0.838479,1.263986,-5.053705,-1.603053,-2.809160,0.305344,0.891401,-0.658593,-14.006898,-22.2136,4.4763,78.3242
39161,55.590835,37.672725,176.699996,0.000000,11,1,-0.518044,0.976296,-5.208463,-0.038168,-3.702290,0.809160,0.669033,2.232117,-14.103524,-21.6649,4.2271,78.5371
39261,55.590835,37.672725,176.699996,0.000000,11,1,-0.210860,0.564119,-5.374402,-0.396947,-0.465649,1.297710,0.794889,3.918075,-12.816987,-21.1581,4.2951,78.6748
39361,55.590835,37.672725,176.699996,0.000000,11,1,-0.173517,0.917328,-5.222586,-1.167939,0.732824,1.977099,0.591907,3.540967,-14.142268,-20.7264,4.4982,78.8337
39520,55.590835,37.672725,176.699996,0.000000,11,1,-0.387943,0.894099,-5.053116,-0.534351,-0.320611,0.297710,0.958357,3.197230,-15.217555,-19.9537,4.5685,78.8971
39620,55.590835,37.672725,176.699996,0.000000,11,1,-0.163879,1.155581,-5.273779,-1.450382,0.274809,0.190840,1.238467,3.689937,-15.490826,-19.5616,4.6648,78.9072
39720,55.590835,37.672725,176.699996,0.000000,11,1,-0.348792,0.882782,-5.189045,0.648855,-0.251908,0.748092,1.411732,3.241957,-16.018936,-18.9538,4.7297,78.9883
39820,55.590835,37.672725,176.699996,0.000000,11,1,-0.253023,1.023946,-5.253184,-0.068702,0.328244,-0.893130,2.178906,3.307995,-16.091165,-18.4321,4.7961,78.8954
39920,55.590835,37.672725,176.699996,0.000000,11,1,-0.311448,1.117460,-5.163742,-1.167939,-0.595420,0.007634,2.379076,3.517870,-15.743928,-18.0107,4.8036,78.9178
40020,55.590835,37.672725,176.699996,0.000000,11,1,-0.141594,1.063258,-5.257892,-0.519084,-0.450382,-0.068702,2.261293,4.036532,-15.688977,-17.5254,4.8225,78.9286
40120,55.590835,37.672725,176.699996,0.000000,11,1,-0.092203,1.118056,-5.243769,-1.007634,-0.603053,0.374046,2.546667,4.665049,-15.850790,-17.0850,4.8399,78.9865
40220,55.590835,37.672725,176.699996,0.000000,11,1,-0.180142,1.097805,-5.188457,-0.450382,0.229008,-0.083969,2.642836,4.664846,-16.123079,-16.5946,4.9232,78.9764
40320,55.590835,37.672725,176.699996,0.000000,11,1,-0.098829,1.031690,-5.200225,-0.366412,-0.343511,0.557252,2.698780,4.794290,-16.421337,-16.0891,4.9697,79.0450
40420,55.590835,37.672725,176.699996,0.000000,11,1,-0.143401,1.127586,-5.193164,-1.030534,0.656488,1.015267,2.752027,4.738296,-16.898900,-15.6483,5.1244,79.1307
40520,55.590835,37.672725,176.699996,0.000000,11,1,-0.301811,1.062067,-5.144912,-0.061069,-0.297710,0.702290,2.731011,4.497738,-17.461046,-15.1108,5.1780,79.2128
40620,55.590835,37.672725,176.699996,0.000000,11,1,-0.118103,1.100187,-5.243181,-0.549618,0.358779,0.854962,2.977664,4.597659,-17.880767,-14.6221,5.2982,79.2934
40720,55.590835,37.672725,176.699996,0.000000,11,1,-0.165084,1.102570,-5.263776,-0.595420,1.167939,0.847328,3.397738,4.163142,-18.354368,-14.1396,5.4959,79.3541
40820,55.590835,37.672725,176.699996,0.000000,11,1,-0.352406,1.202636,-5.160800,0.396947,-0.366412,0.633588,3.606523,3.802977,-18.999692,-13.5561,5.5390,79.4326
40920,55.590835,37.672725,176.699996,0.000000,11,1,-0.279525,1.100187,-5.167861,-0.229008,-1.068702,1.343511,3.896001,3.811020,-19.788711,-13.0268,5.5293,79.5972
41020,55.590835,37.672725,176.699996,0.000000,11,1,-0.137377,1.177619,-5.256715,-0.335878,-0.305344,0.541985,4.496557,4.474392,-20.437133,-12.5174,5.5748,79.6663
41120,55.590835,37.672725,176.699996,0.000000,11,1,-0.092203,1.294363,-5.145501,0.061069,0.251908,0.099237,4.944396,4.864338,-20.990709,-11.9737,5.6648,79.6804
41220,55.590835,37.672725,176.699996,0.000000,11,1,-0.193995,1.177024,-5.180807,-0.419847,0.106870,0.412214,4.934751,4.550150,-21.255123,-11.4745,5.7468,79.7291
41320,55.590835,37.672725,176.699996,0.000000,11,1,-0.085578,1.283642,-4.983093,-0.595420,-2.183206,0.183206,5.287189,5.377539,-21.607091,-10.9907,5.5993,79.8007
41420,55.590835,37.672725,176.699996,0.000000,11,1,nan,nan,nan,nan,nan,nan,0.000000,0.000000,0.000000,nan,nan,nan
41529,55.590847,37.672737,179.300003,0.000000,11,1,0.225822,1.407533,-5.154915,-0.320611,-0.603053,1.221374,6.134022,7.864860,-22.851026,-10.4258,5.6281,79.9569
41629,55.590847,37.672737,179.300003,0.000000,11,1,0.328819,1.392642,-5.183160,-0.122137,0.938931,1.320611,6.598191,8.020645,-23.888412,-9.8892,5.8066,80.0830
41729,55.590847,37.672737,179.300003,0.000000,11,1,0.060184,1.356904,-5.223762,-0.076336,2.297710,0.748092,7.038457,6.680294,-24.495454,-9.3555,6.1084,80.1311
41829,55.590847,37.672737,179.300003,0.000000,11,1,0.233652,1.334866,-5.353218,0.251908,1.129771,0.854962,7.474589,6.129229,-25.181194,-8.7853,6.2961,80.2114
41929,55.590847,37.672737,179.300003,0.000000,11,1,0.121621,1.276494,-5.041347,-0.801527,0.106870,1.343511,7.308135,5.645670,-26.031455,-8.3131,6.3891,80.3573
42029,55.590847,37.672737,179.300003,0.000000,11,1,0.148725,1.574310,-5.099015,-0.435115,1.007634,0.770992,7.815969,5.737628,-26.822893,-7.8116,6.5620,80.4343
42129,55.590847,37.672737,179.300003,0.000000,11,1,0.000554,1.396812,-4.915422,0.259542,-1.748092,0.893130,7.986287,6.004757,-27.428651,-7.2350,6.4627,80.5614
42229,55.590847,37.672737,179.300003,0.000000,11,1,0.282440,1.629704,-5.186691,-1.045801,2.061069,0.480916,8.205082,6.351162,-28.129735,-6.7989,6.7352,80.5996
42329,55.590847,37.672737,179.300003,0.000000,11,1,0.031875,1.375965,-5.113725,-1.030534,1.022901,1.465649,8.060507,5.579973,-28.629468,-6.3477,6.9156,80.7505
42429,55.590847,37.672737,179.300003,0.000000,11,1,-0.084975,1.403959,-5.215524,-0.396947,0.893130,0.977099,7.704778,4.993216,-29.388605,-5.8383,7.0766,80.8553
42529,55.590847,37.672737,179.300003,0.000000,11,1,0.183057,1.401577,-5.405001,-1.389313,1.770992,1.381679,7.511452,4.826794,-30.391378,-5.4237,7.3281,80.9934
42629,55.590847,37.672737,179.300003,0.000000,11,1,-0.054257,1.365839,-5.041936,0.007634,0.007634,0.748092,7.296290,4.221794,-30.961874,-4.8747,7.3971,81.0861
42729,55.590847,37.672737,179.300003,0.000000,11,1,0.011998,1.353331,-5.040171,0.290076,-0.351145,0.183206,7.507746,4.474437,-31.154161,-4.3043,7.4250,81.1255
42829,55.590847,37.672737,179.300003,0.000000,11,1,0.068014,1.355713,-5.159623,-0.977099,0.328244,1.015267,7.543971,4.643370,-31.720830,-3.8504,7.5262,81.2440
42929,55.590847,37.672737,179.300003,0.000000,11,1,0.000554,1.549294,-5.279664,-0.809160,1.519084,0.496183,7.895491,4.236217,-32.246532,-3.3871,7.7420,81.3035
43029,55.590847,37.672737,179.300003,0.000000,11,1,-0.026550,1.425402,-5.070181,0.206107,-0.312977,0.656488,7.936610,4.182991,-32.877788,-2.8183,7.7752,81.3912
43129,55.590847,37.672737,179.300003,0.000000,11,1,-0.083771,1.431358,-5.070181,-0.603053,0.274809,0.893130,8.043889,3.967036,-33.305290,-2.3275,7.8673,81.5004
43229,55.590847,37.672737,179.300003,0.000000,11,1,-0.018720,1.492709,-5.160800,-0.755725,0.541985,0.526718,8.138303,4.000506,-33.726676,-1.8568,7.9840,81.5724
43329,55.590847,37.672737,179.300003,0.000000,11,1,-0.056666,1.521894,-5.212582,-0.343511,0.488550,0.251908,8.202383,3.816923,-34.168548,-1.3485,8.0939,81.6179
43429,55.590847,37.672737,179.300003,0.000000,11,1,nan,nan,nan,nan,nan,nan,0.000000,0.000000,0.000000,nan,nan,nan
43537,55.590858,37.672760,180.300003,0.000000,11,1,0.175830,1.481392,-5.109606,-0.862595,-0.969466,-0.137405,8.200242,4.589383,-34.826145,-0.8610,8.0539,81.6286
43637,55.590858,37.672760,180.300003,0.000000,11,1,0.357730,1.491517,-4.987212,-0.610687,-0.526718,-0.618321,8.148332,5.573707,-34.647941,-0.3913,8.0606,81.5892
43737,55.590858,37.672760,180.300003,0.000000,11,1,0.193297,1.451014,-4.990742,-3.587786,-0.328244,-0.496183,7.360516,5.720121,-33.969764,-0.2176,8.0873,81.5621
43837,55.590858,37.672760,180.300003,0.000000,11,1,0.001157,1.069214,-5.126671,-3.297710,-0.496183,0.099237,4.576699,6.102458,-33.794303,-0.0064,8.0975,81.5952
43937,55.590858,37.672760,180.300003,0.000000,11,1,-0.009083,0.890525,-5.051939,-2.282443,-1.763359,-0.511450,2.747870,6.737968,-33.468391,0.2976,7.9810,81.5663
44037,55.590858,37.672760,180.300003,0.000000,11,1,0.110177,1.205018,-5.204933,-4.763359,-0.648855,-1.664122,1.203380,7.273814,-32.977798,0.3374,7.9767,81.4214
44137,55.590858,37.672760,180.300003,0.000000,11,1,0.080061,0.846448,-5.057236,-3.389313,-4.931298,-1.740458,-1.581005,9.372958,-31.946849,0.5137,7.5444,81.2656
44237,55.590858,37.672760,180.300003,0.000000,11,1,0.666119,0.639764,-5.367929,-0.908397,-0.610687,-0.419847,-2.740958,11.950452,-31.300531,0.9567,7.5434,81.2463
44337,55.590858,37.672760,180.300003,0.000000,11,1,0.391460,0.804754,-5.151973,-1.000000,-0.824427,-0.580153,-3.111529,11.869726,-31.156373,1.3882,7.5214,81.2104
44437,55.590858,37.672760,180.300003,0.000000,11,1,0.295089,0.847639,-5.224351,-1.129771,-1.717557,-0.557252,-3.336194,12.874905,-30.988136,1.8068,7.4104,81.1741
44537,55.590858,37.672760,180.300003,0.000000,11,1,0.392665,0.804158,-5.204344,-0.465649,0.068702,-0.900763,-2.654419,12.833623,-29.934064,2.2881,7.4793,81.1088
44637,55.590858,37.672760,180.300003,0.000000,11,1,0.545655,1.016203,-5.390290,-0.687023,1.282443,-0.305344,-1.587262,12.728406,-29.567617,2.7558,7.6675,81.1094
44737,55.590858,37.672760,180.300003,0.000000,11,1,0.382426,1.030498,-5.117845,-0.954198,-2.045802,-0.320611,-1.328505,13.109184,-29.308807,3.1944,7.5233,81.0926
44837,55.590858,37.672760,180.300003,0.000000,11,1,0.848020,0.983443,-5.195518,-1.160305,1.366412,-0.709924,-0.890788,13.705438,-28.630451,3.6098,7.7222,81.0559
44937,55.590858,37.672760,180.300003,0.000000,11,1,0.525778,0.704688,-5.189045,-0.099237,0.793893,-0.396947,-0.868349,12.904352,-28.157230,4.1352,7.8622,81.0484
45037,55.590858,37.672760,180.300003,0.000000,11,1,0.330626,0.704688,-5.217290,-0.335878,1.335878,-0.229008,-0.813244,11.892984,-27.939910,4.6399,8.0549,81.0634
45137,55.590858,37.672760,180.300003,0.000000,11,1,0.214378,0.807732,-5.279075,-0.335878,0.435115,-0.320611,-0.445374,11.077869,-27.553459,5.1426,8.1586,81.0630
45237,55.590858,37.672760,180.300003,0.000000,11,1,0.385437,0.846448,-5.340273,-0.748092,0.870229,-0.427481,-0.053875,10.782467,-27.263816,5.6032,8.3066,81.0569
45337,55.590858,37.672760,180.300003,0.000000,11,1,0.150532,0.833344,-5.078419,-0.083969,-2.320611,-1.312977,0.095340,10.876293,-26.695840,6.1130,8.1463,80.9302
45437,55.590858,37.672760,180.300003,0.000000,11,1,nan,nan,nan,nan,nan,nan,0.000000,0.000000,0.000000,nan,nan,nan
45542,55.590873,37.672798,181.600006,0.000000,11,1,0.383630,0.747573,-5.099015,-0.572519,-1.877863,-0.801527,0.559323,12.277434,-25.145959,6.6053,8.0193,80.8548
45642,55.590873,37.672798,181.600006,0.000000,11,1,0.567940,0.889929,-5.166684,-1.000000,-0.183206,-0.862595,0.587594,13.173916,-24.664056,7.0334,8.0680,80.7962
45742,55.590873,37.672798,181.600006,0.000000,11,1,0.579385,0.602835,-5.196106,-0.732824,-0.442748,-0.244275,0.478547,13.225417,-23.986984,7.4965,8.0835,80.7966
45842,55.590873,37.672798,181.600006,0.000000,11,1,0.586612,0.790459,-5.178453,-0.770992,0.137405,-0.969466,0.446083,13.484163,-23.452463,7.9466,8.1663,80.7324
45942,55.590873,37.672798,181.600006,0.000000,11,1,0.582998,0.751147,-5.056647,0.137405,-1.503817,-1.152672,0.666013,13.950037,-22.477638,8.4817,8.0898,80.6270
46042,55.590873,37.672798,181.600006,0.000000,11,1,0.825131,0.782120,-5.239651,-0.717557,0.679389,-0.946565,1.112982,14.288087,-21.524135,8.9389,8.2269,80.5749
46142,55.590873,37.672798,181.600006,0.000000,11,1,0.634196,0.760677,-5.255538,-0.122137,0.572519,-1.053435,1.343713,14.104667,-20.799327,9.4538,8.3555,80.5115
46242,55.590873,37.672798,181.600006,0.000000,11,1,0.299305,0.853596,-5.176099,-0.793893,-0.297710,-0.251908,1.424931,13.480842,-20.244081,9.9111,8.3855,80.5143
46342,55.590873,37.672798,181.600006,0.000000,11,1,0.605887,0.839896,-5.220820,-0.320611,-0.419847,-0.618321,1.600856,13.842823,-19.568660,10.4102,8.4098,80.4787
46442,55.590873,37.672798,181.600006,0.000000,11,1,0.557701,0.882186,-5.059589,-0.389313,-0.358779,-0.587786,1.778741,13.935437,-18.949026,10.9029,8.4399,80.4475
46542,55.590873,37.672798,181.600006,0.000000,11,1,0.599261,0.886951,-5.246123,-0.618321,0.580153,-0.541985,2.137183,13.986354,-18.280324,11.3762,8.5615,80.4394
46642,55.590873,37.672798,181.600006,0.000000,11,1,0.502288,0.988208,-5.197872,-0.946565,-0.076336,-0.938931,2.393841,13.691851,-17.757633,11.8089,8.6269,80.3797
46742,55.590873,37.672798,181.600006,0.000000,11,1,0.531199,0.863721,-5.254950,-0.671756,0.312977,-0.541985,2.392607,13.511287,-17.101297,12.2763,8.7224,80.3679
46842,55.590873,37.672798,181.600006,0.000000,11,1,0.595045,0.938175,-5.213759,-0.969466,0.190840,-0.396947,2.446106,13.522342,-16.629461,12.7157,8.8030,80.3686
46942,55.590873,37.672798,181.600006,0.000000,11,1,0.619138,0.894694,-5.191987,-0.854962,0.038168,-0.526718,2.498880,13.719181,-16.218801,13.1642,8.8717,80.3536
47042,55.590873,37.672798,181.600006,0.000000,11,1,0.597454,0.919711,-5.151385,-0.770992,0.152672,-0.488550,2.580929,13.640651,-15.726978,13.6221,8.9507,80.3456
47142,55.590873,37.672798,181.600006,0.000000,11,1,0.629980,0.948301,-5.169627,-0.725191,-0.076336,-0.793893,2.759463,13.800950,-15.106194,14.0792,9.0148,80.3027
47242,55.590873,37.672798,181.600006,0.000000,11,1,0.528790,0.812497,-5.178453,-0.404580,-0.442748,-0.312977,2.912611,13.742988,-14.421711,14.5744,9.0319,80.2983
47342,55.590873,37.672798,181.600006,0.000000,11,1,0.587817,0.842279,-5.177276,-0.847328,-0.083969,-0.435115,2.775480,13.815009,-14.104789,15.0248,9.0868,80.2914
47442,55.590873,37.672798,181.600006,0.000000,11,1,0.610705,0.894099,-5.038405,-0.480916,0.183206,-0.221374,2.743345,13.859548,-13.483703,15.5164,9.1619,80.3129
47585,55.590885,37.672859,182.600006,0.000000,11,1,0.526983,0.688606,-5.237885,-0.503817,0.748092,-0.038168,2.455573,13.504381,-13.067715,16.2241,9.3395,80.3928
47685,55.590885,37.672859,182.600006,0.000000,11,1,0.429407,0.830366,-5.240239,-0.549618,0.236641,-0.259542,2.376636,13.264066,-12.879993,16.7089,9.4204,80.4138
47785,55.590885,37.672859,182.600006,0.000000,11,1,0.613717,0.689797,-5.191399,-0.885496,-0.137405,0.038168,2.140417,13.296748,-12.636094,17.1631,9.4566,80.4533
47885,55.590885,37.672859,182.600006,0.000000,11,1,0.648049,0.745191,-5.164919,-0.312977,-0.068702,-0.122137,2.052512,13.631249,-12.312376,17.6724,9.5039,80.4796
47985,55.590885,37.672859,182.600006,0.000000,11,1,0.508913,0.829175,-5.124906,-0.328244,0.122137,-0.221374,2.038665,13.343637,-12.160017,18.1797,9.5721,80.5028
48086,55.590885,37.672859,182.600006,0.000000,11,1,0.410132,0.772590,-5.018399,-0.145038,-1.641221,-0.473282,2.243798,13.172717,-11.704606,18.6972,9.4799,80.4453
48186,55.590885,37.672859,182.600006,0.000000,11,1,0.669130,1.050154,-5.208463,-0.732824,0.923664,-0.427481,2.456953,13.433794,-11.550463,19.1654,9.6303,80.4762
48286,55.590885,37.672859,182.600006,0.000000,11,1,0.346889,0.844661,-4.990742,-0.068702,-1.603053,-0.297710,2.327467,13.134647,-11.125617,19.6880,9.5377,80.4357
48386,55.590885,37.672859,182.600006,0.000000,11,1,0.463739,0.813688,-5.174334,-0.511450,0.106870,0.145038,2.323263,13.299170,-10.733509,20.1832,9.5912,80.4957
48486,55.590885,37.672859,182.600006,0.000000,11,1,0.277622,0.963192,-5.151385,-0.450382,-0.526718,-0.404580,2.395004,12.670768,-10.521563,20.6720,9.6040,80.4815
48586,55.590885,37.672859,182.600006,0.000000,11,1,0.583601,0.966766,-5.244358,-0.793893,0.755725,0.206107,2.347863,13.092094,-10.338662,21.1441,9.7149,80.5717
48686,55.590885,37.672859,182.600006,0.000000,11,1,0.335445,1.025733,-5.054882,-0.519084,-0.297710,0.038168,2.307055,12.760709,-10.210226,21.6346,9.7330,80.6080
48786,55.590885,37.672859,182.600006,0.000000,11,1,0.442055,1.053132,-5.189045,-0.610687,0.244275,-0.236641,2.454944,12.694179,-9.960536,22.1151,9.8114,80.6391
48886,55.590885,37.672859,182.600006,0.000000,11,1,0.569747,1.091848,-5.424419,-1.412214,2.083969,-0.427481,2.436185,12.407558,-9.588121,22.5248,10.0670,80.7239
48986,55.590885,37.672859,182.600006,0.000000,11,1,0.384233,0.939962,-5.283195,-0.671756,0.351145,-0.038168,2.135606,11.781850,-9.146295,23.0036,10.1471,80.7790
49086,55.590885,37.672859,182.600006,0.000000,11,1,0.217992,0.916733,-5.031344,-0.824427,-0.641221,0.374046,1.792006,11.501621,-9.035028,23.4670,10.1193,80.8335
49186,55.590885,37.672859,182.600006,0.000000,11,1,0.407723,0.975105,-5.229647,-0.404580,0.541985,-0.328244,1.906576,11.641309,-8.945421,23.9694,10.2277,80.8708
49286,55.590885,37.672859,182.600006,0.000000,11,1,0.304726,0.872656,-5.209052,-0.129771,0.396947,0.465649,1.995970,11.170435,-9.013258,24.5116,10.2898,80.9767
49386,55.590885,37.672859,182.600006,0.000000,11,1,0.176432,0.879208,-5.204344,-0.748092,-0.038168,0.236641,2.003391,10.583169,-9.133292,24.9850,10.3211,81.0434
49576,55.590885,37.672859,182.600006,0.000000,11,1,nan,nan,nan,nan,nan,nan,0.000000,0.000000,0.000000,nan,nan,nan
49676,55.590885,37.672859,182.600006,0.000000,11,1,0.326410,1.003099,-5.077830,-0.694656,-0.488550,-0.335878,2.276635,10.786830,-8.896644,25.4509,10.3355,81.0383
49776,55.590885,37.672859,182.600006,0.000000,11,1,0.269792,0.817262,-5.186103,-0.656488,-0.076336,0.114504,2.028040,10.887834,-8.572189,25.9313,10.3676,81.0927
49876,55.590885,37.672859,182.600006,0.000000,11,1,0.296294,1.018586,-5.139616,-0.732824,-0.412214,-0.328244,2.120047,10.911355,-8.417133,26.3942,10.3886,81.0920
49976,55.590885,37.672859,182.600006,0.000000,11,1,0.364356,1.076362,-5.186103,-0.839695,-0.091603,-0.587786,2.212679,11.057129,-8.103820,26.8448,10.4500,81.0824
50076,55.590885,37.672859,182.600006,0.000000,11,1,0.299908,1.073384,-5.098426,-1.007634,0.145038,-0.091603,2.237995,11.031050,-7.853850,27.2888,10.5098,81.1292
50176,55.590885,37.672859,182.600006,0.000000,11,1,0.290271,1.138903,-5.024871,-0.702290,-0.412214,-0.305344,2.221741,11.193810,-7.632934,27.7552,10.5298,81.1310
50276,55.590885,37.672859,182.600006,0.000000,11,1,0.334842,0.973318,-5.105487,-1.038168,-0.442748,0.076336,2.035591,11.338712,-7.400199,28.1941,10.5292,81.1658
50376,55.590885,37.672859,182.600006,0.000000,11,1,0.352310,0.931623,-5.226705,-0.793893,0.343511,-0.030534,1.735783,11.269976,-7.276622,28.6626,10.6025,81.2291
50476,55.590885,37.672859,182.600006,0.000000,11,1,0.373993,0.878017,-5.245534,-1.351145,-0.053435,-0.083969,1.449784,11.194766,-7.159925,29.0710,10.6431,81.2687
50576,55.590885,37.672859,182.600006,0.000000,11,1,0.493253,0.776759,-5.345569,-0.755725,0.587786,0.137405,1.172490,11.452186,-7.066240,29.5487,10.7285,81.3602
50676,55.590885,37.672859,182.600006,0.000000,11,1,0.263768,0.746977,-5.067827,0.022901,-0.885496,-0.221374,0.978567,11.185854,-6.922740,30.0847,10.7032,81.3463
50776,55.590885,37.672859,182.600006,0.000000,11,1,0.286054,0.864317,-5.127259,-0.412214,-0.312977,-0.564885,0.931254,11.364145,-6.795364,30.5770,10.7447,81.3314
50876,55.590885,37.672859,182.600006,0.000000,11,1,0.359537,0.788672,-5.177865,-0.297710,-0.595420,-0.198473,0.860710,11.624914,-6.575780,31.0841,10.7433,81.3342
50976,55.590885,37.672859,182.600006,0.000000,11,1,0.395074,0.919115,-5.265542,-0.900763,0.053435,-0.381679,0.863977,11.729171,-6.422692,31.5342,10.8069,81.3553
51076,55.590885,37.672859,182.600006,0.000000,11,1,0.424588,0.900055,-5.163154,-0.748092,-0.099237,-0.343511,0.684931,11.739728,-6.340052,31.9989,10.8553,81.3721
51176,55.590885,37.672859,182.600006,0.000000,11,1,0.464341,0.870869,-5.199636,-1.068702,0.244275,-0.190840,0.497967,11.672577,-6.232782,32.4375,10.9245,81.4211
51276,55.590885,37.672859,182.600006,0.000000,11,1,0.425190,0.903033,-5.103133,-1.076336,-0.534351,-0.175573,0.390070,11.658994,-6.099706,32.8677,10.9269,81.4291
51376,55.590885,37.672859,182.600006,0.000000,11,1,0.526380,0.879208,-5.214348,-1.122137,0.236641,0.320611,0.373007,11.812680,-6.052513,33.3095,10.9668,81.5224
51476,55.590904,37.672950,183.899993,0.000000,11,1,0.441453,0.766633,-5.157269,-0.824427,0.862595,-0.297710,0.055606,11.979364,-5.981872,33.7779,11.0923,81.5987
51590,55.590904,37.672950,183.899993,0.000000,11,1,0.364958,0.804754,-5.190222,-0.312977,-0.335878,0.145038,0.127371,11.876035,-5.756315,34.3638,11.0932,81.6517
51690,55.590904,37.672950,183.899993,0.000000,11,1,0.326410,0.805349,-5.120198,-0.816794,-0.305344,0.152672,0.007338,11.756660,-5.511282,34.8279,11.0955,81.7006
51790,55.590904,37.672950,183.899993,0.000000,11,1,0.254131,0.889334,-5.076654,-0.603053,-0.595420,-0.145038,-0.074128,11.667255,-5.363553,35.3052,11.0909,81.7077
51890,55.590904,37.672950,183.899993,0.000000,11,1,0.310147,1.007269,-5.153151,-0.908397,-0.152672,-0.122137,0.086875,11.673597,-5.121767,35.7574,11.1209,81.7429
51990,55.590904,37.672950,183.899993,0.000000,11,1,0.393267,0.973318,-5.171980,-0.847328,-0.328244,-0.427481,0.143092,11.870460,-4.707654,36.2089,11.1544,81.7427
52090,55.590904,37.672950,183.899993,0.000000,11,1,0.380619,0.962001,-5.232589,-1.114504,0.320611,-0.114504,0.110311,11.860368,-4.265977,36.6464,11.2214,81.8076
52190,55.590904,37.672950,183.899993,0.000000,11,1,0.447476,0.894694,-5.262011,-0.664122,-0.145038,-0.213740,-0.087259,12.105652,-3.876161,37.1219,11.2567,81.8365
52290,55.590904,37.672950,183.899993,0.000000,11,1,0.395677,0.960214,-5.051351,-1.282443,-0.534351,-0.183206,-0.204641,12.023771,-3.445226,37.5314,11.2590,81.8441
52390,55.590904,37.672950,183.899993,0.000000,11,1,0.417963,0.892907,-4.954848,-0.877863,-0.450382,-0.717557,-0.366648,12.103129,-2.982765,37.9740,11.3005,81.8139
52490,55.590904,37.672950,183.899993,0.000000,11,1,0.530597,0.786885,-5.069004,-1.114504,0.114504,-0.244275,-0.330636,12.435301,-2.240984,38.4074,11.3575,81.8576
52590,55.590904,37.672950,183.899993,0.000000,11,1,0.387847,0.794628,-5.296140,-1.114504,1.343511,-0.129771,-0.488593,12.250612,-1.668194,38.8583,11.5029,81.9891
52690,55.590904,37.672950,183.899993,0.000000,11,1,0.064400,0.727322,-5.175511,-0.145038,-1.145038,0.557252,-0.511849,11.561417,-1.440780,39.3855,11.4108,82.0161
52790,55.590904,37.672950,183.899993,0.000000,11,1,0.573964,0.623682,-5.333800,-1.320611,0.763359,-0.183206,-0.467188,11.541611,-1.143826,39.8080,11.5128,82.1082
52890,55.590904,37.672950,183.899993,0.000000,11,1,0.511322,0.869678,-4.763606,-0.618321,-0.969466,-1.572519,-0.611981,12.141558,-0.409800,40.2566,11.5707,81.9787
52990,55.590904,37.672950,183.899993,0.000000,11,1,0.349900,1.066236,-4.905419,-0.526718,-1.740458,-1.511450,-0.682418,12.942039,0.669611,40.7050,11.5671,81.8034
53090,55.590904,37.672950,183.899993,0.000000,11,1,1.074492,0.671928,-5.670973,-1.068702,1.206107,-0.938931,-0.044452,13.455010,1.649239,41.1478,11.7498,81.8693
53190,55.590904,37.672950,183.899993,0.000000,11,1,0.679370,0.333609,-5.527984,-1.480916,-0.030534,-0.389313,-0.653118,13.018407,2.509422,41.5413,11.8030,81.8952
53291,55.590904,37.672950,183.899993,0.000000,11,1,0.653470,-0.031513,-5.408531,0.137405,0.503817,-0.106870,-1.488992,12.709758,3.021345,42.1143,11.8777,81.9804
53391,55.590904,37.672950,183.899993,0.000000,11,1,nan,nan,nan,nan,nan,nan,0.000000,0.000000,0.000000,nan,nan,nan
53497,55.590904,37.672950,183.899993,0.000000,11,1,nan,nan,nan,nan,nan,nan,0.000000,0.000000,0.000000,nan,nan,nan
53597,55.590904,37.672950,183.899993,0.000000,11,1,0.598659,0.542080,-5.200225,-0.961832,0.007634,-1.053435,-1.372057,14.047310,5.853595,42.5501,11.9780,81.9597
53697,55.590904,37.672950,183.899993,0.000000,11,1,0.352310,0.689201,-5.223762,-0.480916,-0.351145,-1.053435,-1.330750,13.955529,6.759138,43.0290,12.0520,81.9150
53797,55.590904,37.672950,183.899993,0.000000,11,1,0.617331,0.713622,-5.276133,-0.396947,0.122137,-1.129771,-0.944268,14.251388,7.585124,43.5221,12.1662,81.8983
53897,55.590904,37.672950,183.899993,0.000000,11,1,0.799834,0.992378,-5.298494,-1.664122,0.961832,-1.030534,-0.647130,14.373477,8.502248,43.9028,12.3343,81.9493
53997,55.590904,37.672950,183.899993,0.000000,11,1,0.602875,0.772590,-5.200814,-0.335878,-0.312977,-1.267176,-0.576707,14.335177,9.663131,44.3935,12.4271,81.8933
54097,55.590904,37.672950,183.899993,0.000000,11,1,0.700451,0.789267,-5.161977,-0.366412,-0.007634,-1.206107,-0.353762,14.680070,10.795660,44.8869,12.5377,81.8645
54197,55.590904,37.672950,183.899993,0.000000,11,1,0.632991,0.717792,-5.259069,-1.145038,0.732824,-0.641221,-0.218200,14.482883,11.765936,45.3233,12.6608,81.9313
54297,55.590904,37.672950,183.899993,0.000000,11,1,0.601670,0.660015,-5.317324,-0.503817,0.885496,-1.435114,-0.193515,14.112318,12.723773,45.8140,12.8508,81.9533
54397,55.590904,37.672950,183.899993,0.000000,11,1,0.532404,0.627256,-5.137263,-1.053435,-0.664122,-1.274809,-0.173479,13.957180,13.910210,46.2272,12.9214,81.8738
54497,55.590904,37.672950,183.899993,0.000000,11,1,0.664914,0.502768,-5.179630,-0.564885,-0.312977,-1.351145,-0.267666,14.121283,15.004487,46.6940,13.0224,81.8157
54597,55.590904,37.672950,183.899993,0.000000,11,1,0.437237,0.767229,-5.166684,-0.664122,-1.183206,-1.641221,-0.051662,14.319077,16.122564,47.1316,13.0855,81.6727
54697,55.590904,37.672950,183.899993,0.000000,11,1,0.528790,0.797011,-5.342627,-1.564885,0.702290,-1.213740,-0.015235,14.399538,17.311990,47.5181,13.2460,81.7023
54797,55.590904,37.672950,183.899993,0.000000,11,1,0.349900,0.873847,-5.252596,-1.335878,-0.427481,-1.503817,-0.222353,14.142895,18.652112,47.9035,13.3518,81.6271
54897,55.590904,37.672950,183.899993,0.000000,11,1,0.384233,0.851213,-5.066650,-1.167939,-0.755725,-1.770992,-0.813382,13.958668,19.809848,48.2957,13.4560,81.5091
54998,55.590904,37.672950,183.899993,0.000000,11,1,0.517346,0.839896,-5.189045,-1.190840,0.015267,-1.114504,-0.807454,14.329764,21.141527,48.7139,13.5640,81.4958
55098,55.590904,37.672950,183.899993,0.000000,11,1,0.443862,0.794628,-5.107253,-0.809160,-0.427481,-1.610687,-0.465736,14.097344,22.445426,49.1504,13.6794,81.4156
55198,55.590904,37.672950,183.899993,0.000000,11,1,0.454704,0.769016,-5.336154,-0.656488,0.656488,-1.534351,-0.297198,14.056351,23.696861,49.6236,13.8601,81.4261
55298,55.590904,37.672950,183.899993,0.000000,11,1,-0.028960,0.747573,-5.033109,0.541985,-1.916030,-1.549618,-0.198371,13.286121,24.645055,50.1681,13.8762,81.2346
55398,55.590904,37.672950,183.899993,0.000000,11,1,nan,nan,nan,nan,nan,nan,0.000000,0.000000,0.000000,nan,nan,nan
55504,55.590904,37.672950,183.899993,0.000000,11,1,0.389051,0.739830,-4.983681,-1.389313,0.083969,-1.160305,1.142518,13.797594,27.959190,50.5875,13.9983,81.2270
55604,55.590904,37.672950,183.899993,0.000000,11,1,0.310750,0.872656,-5.159035,-0.748092,-0.290076,-1.114504,1.040849,13.845249,29.083866,51.0410,14.0864,81.1939
55704,55.590904,37.672950,183.899993,0.000000,11,1,0.221004,0.749956,-5.304378,-0.633588,-0.610687,-1.076336,1.037058,13.557852,30.195219,51.5003,14.1517,81.1382
55804,55.590904,37.672950,183.899993,0.000000,11,1,0.213173,1.397407,-4.927191,0.755725,-2.045802,-2.221374,2.292082,14.357954,31.605045,52.0522,14.2186,80.8936
55904,55.590904,37.672950,183.899993,0.000000,11,1,0.670937,1.929307,-5.286725,0.763359,0.160305,-3.221374,4.727910,15.626924,33.691272,52.6334,14.5018,80.7668
56004,55.590904,37.672950,183.899993,0.000000,11,1,0.434828,2.314681,-4.780082,-0.175573,-1.267176,-4.664122,6.939824,15.374431,36.437946,53.0681,14.8149,80.4348
56104,55.590904,37.672950,183.899993,0.000000,11,1,0.253529,1.962066,-5.143147,-1.496183,0.198473,-2.534351,7.911976,14.504214,38.986946,53.4350,15.0472,80.3581
56204,55.590904,37.672950,183.899993,0.000000,11,1,0.255938,2.298598,-5.007807,-0.282443,-1.809160,-2.503817,8.605098,14.668952,40.767211,53.8804,15.1587,80.1173
56304,55.590904,37.672950,183.899993,0.000000,11,1,0.652265,2.527917,-4.912480,-0.099237,-1.320611,-2.832061,10.180456,15.241403,43.050064,54.3492,15.3272,79.8984
56404,55.590904,37.672950,183.899993,0.000000,11,1,1.035944,2.782847,-4.692406,-4.061069,-2.282443,-4.213740,11.371244,16.470251,46.722263,54.3774,15.5529,79.5155
56504,55.590904,37.672950,183.899993,0.000000,11,1,1.450943,2.461206,-4.855991,-3.793893,2.389313,-4.419847,11.252252,17.136756,50.857013,54.5341,16.0676,79.5149
56604,55.590904,37.672950,183.899993,0.000000,11,1,0.848622,2.311107,-4.652980,-2.305344,0.748092,-3.610687,10.182584,15.928960,53.436100,54.8149,16.4213,79.4255
56704,55.590904,37.672950,183.899993,0.000000,11,1,0.064400,2.362331,-4.693582,-1.801527,0.229008,-3.335878,9.940892,13.586295,55.813629,55.1381,16.7232,79.3101
56804,55.590904,37.672950,183.899993,0.000000,11,1,-0.201223,2.365309,-4.654158,-1.511450,-3.076336,-2.465649,10.312181,13.140285,57.243927,55.4236,16.7658,78.9643
56904,55.590904,37.672950,183.899993,0.000000,11,1,-1.021584,0.687414,-5.282606,-2.519084,-0.946565,1.328244,8.451107,11.817214,59.249988,55.7258,16.6177,79.0261
57004,55.590904,37.672950,183.899993,0.000000,11,1,0.457716,2.078810,-5.466198,2.190840,-4.687023,-3.694656,10.026578,14.778910,59.893363,56.3218,16.6765,78.4700
57104,55.590904,37.672950,183.899993,0.000000,11,1,1.375051,2.311702,-5.038994,-1.435114,-0.198473,-3.557252,13.023914,16.795009,63.568988,56.6691,16.9761,78.3128
57204,55.590904,37.672950,183.899993,0.000000,11,1,0.953426,1.838771,-4.092202,-0.732824,-0.549618,-1.358779,12.359558,14.720306,66.135093,57.1145,17.0734,78.2525
57304,55.590904,37.672950,183.899993,0.000000,11,1,1.575021,2.007334,-5.377933,-3.404580,12.167940,-0.167939,11.755908,11.312648,68.258155,57.6486,17.7564,79.3828
57404,55.590904,37.672950,183.899993,0.000000,11,1,-1.041461,1.574906,-5.055470,-2.618321,-0.183206,-0.244275,10.642854,8.049268,67.854919,57.9340,17.7798,79.4187
57588,55.590877,37.673072,184.800003,0.000000,11,1,0.344479,1.372391,-5.873395,1.015267,-0.290076,0.244275,9.134142,8.324131,67.962738,59.1376,17.7350,79.5171
57688,55.590877,37.673072,184.800003,0.000000,11,1,-0.286753,0.832153,-4.981327,1.732824,-0.816794,0.259542,7.982164,6.824677,66.662055,59.8491,17.6818,79.5233
57788,55.590877,37.673072,184.800003,0.000000,11,1,1.031728,1.562397,-5.210817,1.129771,2.000000,0.244275,9.042401,7.178745,66.241867,60.5779,17.7698,79.7846
57888,55.590877,37.673072,184.800003,0.000000,11,1,0.741409,1.073384,-5.152562,0.160305,-3.923664,1.167939,8.484618,8.027765,64.988075,61.0596,17.4857,79.5513
57988,55.590877,37.673072,184.800003,0.000000,11,1,1.567793,1.245521,-5.183160,2.503817,-1.259542,3.740458,8.929912,11.537345,62.375114,61.8872,17.1053,79.6890
58088,55.590877,37.673072,184.800003,0.000000,11,1,1.066060,2.009121,-5.171391,-4.091603,3.877863,-3.671756,8.615314,11.976305,63.097927,62.0873,17.6195,79.9335
58188,55.590877,37.673072,184.800003,0.000000,11,1,-0.207849,1.123417,-4.950140,-2.946565,3.763359,-0.770992,6.759284,7.751193,66.458847,62.4444,17.8704,80.3123
58288,55.590877,37.673072,184.800003,0.000000,11,1,-0.062087,2.075237,-5.115491,0.290076,1.244275,-1.984733,7.522711,5.645643,67.613166,63.0367,18.1109,80.3999
58388,55.590877,37.673072,184.800003,0.000000,11,1,-0.395171,1.501047,-5.889871,0.877863,-1.190840,-1.984733,8.438530,4.035691,69.557075,63.6175,18.2411,80.2611
58488,55.590877,37.673072,184.800003,0.000000,11,1,0.096323,1.892973,-4.750072,0.320611,-3.496183,0.160305,9.606830,4.443780,69.432334,64.1061,18.0785,80.0053
58588,55.590877,37.673072,184.800003,0.000000,11,1,0.796220,1.851875,-5.127259,-1.282443,-3.893130,-5.824428,9.838873,8.112493,73.118797,64.3360,18.4391,79.4365
58688,55.590877,37.673072,184.800003,0.000000,11,1,-0.369271,1.555846,-4.309334,-3.786260,-1.778626,-3.236641,9.169170,8.769201,77.409996,64.4142,18.6592,79.1870
58788,55.590877,37.673072,184.800003,0.000000,11,1,-0.361441,0.110843,-6.165259,-2.572519,2.076336,-0.717557,8.281814,10.033991,81.199920,64.7681,18.8180,79.4199
58888,55.590877,37.673072,184.800003,0.000000,11,1,-0.409626,-0.724233,-5.638021,-0.229008,1.465649,2.129771,5.302953,7.760105,80.405204,65.3788,18.6911,79.7224
58988,55.590877,37.673072,184.800003,0.000000,11,1,0.219799,-0.184591,-5.006042,1.038168,-1.412214,0.053435,4.240963,8.487220,79.576911,65.9977,18.6318,79.6563
59088,55.590877,37.673072,184.800003,0.000000,11,1,1.193752,0.372921,-5.756885,-0.480916,2.122137,1.343511,3.366451,8.735399,79.258224,66.5911,18.5972,79.9858
59188,55.590877,37.673072,184.800003,0.000000,11,1,0.588419,0.627851,-5.128436,-0.458015,-1.793893,-1.404580,4.063529,10.137570,81.285263,67.0289,18.6582,79.8209
59288,55.590877,37.673072,184.800003,0.000000,11,1,1.240733,1.291981,-5.764535,0.076336,-1.129771,-2.610687,5.052855,12.320972,83.175384,67.5249,18.8573,79.6719
59388,55.590877,37.673072,184.800003,0.000000,11,1,-0.018118,0.858956,-4.655334,-0.358779,-5.664122,-0.282443,4.944665,13.532859,83.666061,67.8654,18.6700,79.1746
59536,55.590877,37.673072,184.800003,0.000000,11,1,nan,nan,nan,nan,nan,nan,0.000000,0.000000,0.000000,nan,nan,nan
59636,55.590877,37.673072,184.800003,0.000000,11,1,0.684791,1.183576,-5.530926,-0.740458,0.312977,-0.664122,5.966954,15.118781,86.594169,68.3507,18.7443,79.2467
59736,55.590877,37.673072,184.800003,0.000000,11,1,0.447476,1.069214,-5.562113,-0.740458,-2.656489,-1.839695,5.708300,16.368980,87.710220,68.7278,18.8189,78.9821
59836,55.590877,37.673072,184.800003,0.000000,11,1,0.489639,1.104357,-4.532940,0.374046,-1.923664,-1.007634,5.352266,16.227342,87.721786,69.2497,18.8441,78.8217
59936,55.590877,37.673072,184.800003,0.000000,11,1,0.601670,0.938771,-4.486453,1.671756,0.832061,0.374046,5.770865,15.015199,87.423889,70.0061,18.8373,78.9855
60036,55.590877,37.673072,184.800003,0.000000,11,1,0.368572,1.258030,-4.630032,-0.854962,-2.152672,-1.473282,6.583322,15.384369,87.994956,70.3925,18.9017,78.7863
60136,55.590877,37.673072,184.800003,0.000000,11,1,0.448681,1.109122,-5.402647,-0.587786,1.442748,0.984733,6.257343,14.552821,87.720336,70.9495,18.8547,79.0323
60236,55.590877,37.673072,184.800003,0.000000,11,1,0.329421,0.802967,-5.403235,-1.404580,-1.412214,-0.290076,6.091568,14.076202,88.370910,71.3184,18.8342,78.9487
60336,55.590877,37.673072,184.800003,0.000000,11,1,0.399893,0.950088,-5.208463,-0.419847,-0.603053,-0.175573,4.898624,13.506851,87.330177,71.8131,18.8290,78.9499
60436,55.590877,37.673072,184.800003,0.000000,11,1,0.501083,1.130564,-5.391467,0.038168,-1.282443,-1.954198,4.897537,13.843117,87.496978,72.3127,18.9720,78.8249
60536,55.590877,37.673072,184.800003,0.000000,11,1,0.354719,0.820836,-5.117845,-0.198473,1.053435,1.000000,5.037810,13.484774,87.652130,72.8958,18.9041,79.0303
60636,55.590877,37.673072,184.800003,0.000000,11,1,0.426997,1.076958,-4.567069,0.679389,-1.068702,1.862595,4.614295,13.242600,85.156227,73.5052,18.6903,79.0465
60736,55.590877,37.673072,184.800003,0.000000,11,1,0.414951,1.439697,-4.437025,-0.801527,0.351145,0.152672,5.202937,13.106947,83.883613,73.9958,18.6802,79.1539
60836,55.590877,37.673072,184.800003,0.000000,11,1,0.220401,1.439102,-5.252596,-3.450382,0.687023,-1.969466,5.248448,13.472493,84.767585,74.2128,18.8828,79.2340
60936,55.590877,37.673072,184.800003,0.000000,11,1,-0.163277,0.966170,-4.971324,-3.755725,-0.473282,-0.740458,1.838530,12.440941,84.467262,74.3729,18.9354,79.2320
61036,55.590877,37.673072,184.800003,0.000000,11,1,0.634798,0.850617,-6.076406,-0.702290,1.694656,1.167939,0.400242,11.924128,84.001296,74.9273,18.8614,79.5047
61136,55.590877,37.673072,184.800003,0.000000,11,1,-0.254830,0.749956,-4.996627,0.633588,-0.526718,2.167939,0.376508,9.846688,81.908821,75.5500,18.6314,79.5764
61236,55.590877,37.673072,184.800003,0.000000,11,1,0.492650,0.815475,-5.294375,-0.175573,1.328244,-0.198473,1.164428,10.170587,80.848243,76.1320,18.6756,79.7743
61336,55.590877,37.673072,184.800003,0.000000,11,1,0.387847,0.752934,-5.201402,-0.755725,0.603053,-2.129771,0.976288,9.403094,81.183586,76.6172,18.8886,79.8502
61436,55.590877,37.673072,184.800003,0.000000,11,1,0.101142,1.078149,-5.595654,0.625954,-1.358779,-1.648855,1.298965,7.626152,81.831932,77.1796,19.0097,79.7378
61600,55.590637,37.673225,183.199996,0.000000,11,1,-0.314460,0.707070,-5.253184,0.748092,-3.022901,-0.435115,1.792049,8.318184,83.290397,78.0456,18.9574,79.3193
61700,55.590637,37.673225,183.199996,0.000000,11,1,-0.437333,0.487282,-5.192575,4.145038,0.786260,-0.763359,3.612847,8.605883,84.738624,79.0394,19.0373,79.4515
61800,55.590637,37.673225,183.199996,0.000000,11,1,-0.588516,1.259221,-4.031004,-3.137405,-3.267176,-1.847328,3.870519,7.039253,85.537750,79.1607,19.1457,79.1417
61900,55.590637,37.673225,183.199996,0.000000,11,1,0.639617,0.400320,-6.354146,-0.725191,1.557252,-0.458015,3.508160,9.081579,86.513092,79.6966,19.2078,79.3615
62000,55.590637,37.673225,183.199996,0.000000,11,1,0.269189,1.295555,-5.291433,0.931298,2.427481,0.793893,4.379712,8.249197,85.723014,80.4359,19.1592,79.6957
62100,55.590637,37.673225,183.199996,0.000000,11,1,0.199320,1.267560,-5.127848,-0.618321,0.961832,-0.893130,5.029656,8.124919,86.499404,80.9602,19.2500,79.8472
62200,55.590637,37.673225,183.199996,0.000000,11,1,0.233050,1.168685,-4.978385,-1.465649,-1.862595,-1.160305,4.793890,8.469326,87.076591,81.3011,19.3225,79.6996
62300,55.590637,37.673225,183.199996,0.000000,11,1,0.466148,0.895290,-5.751000,-1.427481,4.740458,0.442748,4.731847,8.256752,87.456649,81.8834,19.3342,80.2696
62400,55.590637,37.673225,183.199996,0.000000,11,1,0.213776,1.462331,-4.862463,-1.610687,-0.465649,0.305344,4.340062,6.663249,86.732673,82.2657,19.2831,80.2912
62500,55.590637,37.673225,183.199996,0.000000,11,1,-0.063292,1.066236,-5.374990,-1.641221,-0.091603,-0.198473,4.150498,7.522450,87.603775,82.6556,19.2867,80.3448
62600,55.590637,37.673225,183.199996,0.000000,11,1,-0.465642,0.406276,-5.334977,-0.229008,0.305344,2.954198,3.021643,6.916567,87.771949,83.2136,18.9819,80.4811
62700,55.590637,37.673225,183.199996,0.000000,11,1,-0.019322,0.785694,-5.592711,-1.801527,1.679389,2.488550,3.334423,7.629065,87.223228,83.6577,18.7380,80.7529
62800,55.590637,37.673225,183.199996,0.000000,11,1,0.085481,1.158559,-4.632386,-4.679389,-4.061069,1.106870,1.415281,8.585680,86.614608,83.6148,18.5669,80.4053
62900,55.590637,37.673225,183.199996,0.000000,11,1,0.009589,-0.581877,-5.719225,-0.152672,0.534351,2.580153,-0.779668,9.809656,87.546607,84.1833,18.2996,80.5553
63000,55.590637,37.673225,183.199996,0.000000,11,1,0.625763,0.941749,-4.887177,-0.167939,-2.251908,-0.091603,-0.985417,9.292543,85.695640,84.6488,18.2698,80.3833
63100,55.590637,37.673225,183.199996,0.000000,11,1,0.466751,0.490856,-5.752766,1.206107,1.786260,0.000000,-0.336916,10.052116,85.954719,85.3848,18.2677,80.6355
63200,55.590637,37.673225,183.199996,0.000000,11,1,0.025249,0.478943,-4.963675,-0.183206,0.274809,1.282443,0.162616,8.735773,85.555679,85.9351,18.1237,80.7391
63300,55.590637,37.673225,183.199996,0.000000,11,1,-0.045825,0.705283,-5.052528,0.816794,-1.244275,-1.389313,0.326086,8.948176,85.971099,86.5294,18.2352,80.6632
63400,55.590637,37.673225,183.199996,0.000000,11,1,nan,nan,nan,nan,nan,nan,0.000000,0.000000,0.000000,nan,nan,nan
63508,55.590637,37.673225,183.199996,0.000000,11,1,0.349298,0.465839,-5.153739,-1.603053,-0.572519,1.740458,-2.324410,9.953922,83.291908,86.9403,18.0230,80.6787
63608,55.590637,37.673225,183.199996,0.000000,11,1,0.284850,0.458096,-5.397351,0.061069,-0.793893,-1.702290,-3.448623,10.793225,82.414222,87.4739,18.1692,80.6505
63708,55.590637,37.673225,183.199996,0.000000,11,1,0.560110,0.537911,-5.299082,-1.732824,-0.053435,-0.564885,-3.336727,10.823726,82.561317,87.8543,18.2050,80.7063
63808,55.590637,37.673225,183.199996,0.000000,11,1,0.402905,0.379473,-5.424419,-0.900763,-1.916030,-0.832061,-5.392476,10.830811,81.722747,88.2565,18.2608,80.5654
63908,55.590637,37.673225,183.199996,0.000000,11,1,0.576975,0.282385,-5.119609,-2.816794,2.053435,0.595420,-6.335280,10.825372,81.802833,88.5991,18.1857,80.8468
64008,55.590637,37.673225,183.199996,0.000000,11,1,0.207753,0.309784,-5.300848,-2.564885,-1.328244,-2.595420,-6.193582,10.126906,84.216407,88.8530,18.4207,80.7643
64108,55.590637,37.673225,183.199996,0.000000,11,1,0.231243,-0.501467,-5.670973,-0.435115,1.893130,0.740458,-7.368746,11.027129,85.321472,89.4290,18.3275,81.0282
64208,55.590637,37.673225,183.199996,0.000000,11,1,0.452897,0.294297,-5.159623,0.198473,-0.572519,-2.068702,-7.351399,10.363660,85.370819,89.9856,18.5115,81.0299
64308,55.590637,37.673225,183.199996,0.000000,11,1,0.398086,0.079274,-5.099603,-0.488550,0.297710,0.557252,-7.203128,9.676484,85.440895,90.5028,18.4325,81.1239
64408,55.590637,37.673225,183.199996,0.000000,11,1,0.563724,0.001842,-5.492678,0.175573,-1.076336,-2.022901,-6.588381,11.238028,85.949043,91.0415,18.6126,81.0760
64508,55.590637,37.673225,183.199996,0.000000,11,1,0.090300,-0.115497,-4.407603,-1.610687,-2.045802,1.335878,-7.182570,10.382598,85.589515,91.3670,18.4592,80.9198
64608,55.590637,37.673225,183.199996,0.000000,11,1,0.933549,0.005416,-5.471494,-0.862595,-0.320611,-0.068702,-7.421802,12.491875,85.673217,91.8261,18.4424,80.9485
64708,55.590637,37.673225,183.199996,0.000000,11,1,0.228232,0.144198,-4.854225,-2.633588,-0.595420,0.854962,-8.045634,12.275496,86.147895,92.0979,18.3341,80.9448
64808,55.590637,37.673225,183.199996,0.000000,11,1,0.606489,-0.297761,-5.849269,-2.022901,1.503817,-0.977099,-9.438801,13.018031,86.879692,92.5026,18.4004,81.1692
64908,55.590637,37.673225,183.199996,0.000000,11,1,0.518550,-0.250706,-4.682991,-0.534351,-1.564885,-1.793893,-10.454425,12.500914,86.986541,92.9557,18.5614,81.0752
65008,55.590637,37.673225,183.199996,0.000000,11,1,0.768513,-0.743293,-5.130201,1.694656,2.442748,0.297710,-10.644521,12.653559,87.378364,93.7621,18.4910,81.3920
65108,55.590637,37.673225,183.199996,0.000000,11,1,0.711293,-0.694451,-5.782776,4.106870,2.656489,-2.977099,-10.812133,11.883574,87.711914,94.8253,18.7407,81.7561
65208,55.590637,37.673225,183.199996,0.000000,11,1,-0.124729,-0.385319,-5.201402,-0.267176,0.198473,-0.183206,-10.899525,9.962452,87.716224,95.3616,18.7291,81.8394
65308,55.590637,37.673225,183.199996,0.000000,11,1,0.079458,-0.559243,-5.433246,-0.793893,2.427481,1.328244,-10.941653,8.991273,87.461868,95.9149,18.5444,82.1409
65408,55.590637,37.673225,183.199996,0.000000,11,1,nan,nan,nan,nan,nan,nan,0.000000,0.000000,0.000000,nan,nan,nan
65514,55.590301,37.673439,184.800003,0.000000,11,1,-0.200019,-0.512188,-5.310851,0.145038,1.221374,-0.389313,-13.249963,6.002183,87.403236,96.5636,18.5404,82.3450
65614,55.590301,37.673439,184.800003,0.000000,11,1,0.048138,-0.487172,-5.582708,-0.839695,4.305344,-0.679389,-12.544589,5.008440,88.069168,97.1810,18.5264,82.8641
65714,55.590301,37.673439,184.800003,0.000000,11,1,-0.477689,-0.516953,-5.166096,-0.473282,-3.274809,0.297710,-13.235843,3.879730,88.106620,97.5787,18.5086,82.5770
65814,55.590301,37.673439,184.800003,0.000000,11,1,-0.070520,-0.474068,-5.269660,-2.503817,-0.274809,0.274809,-13.772777,4.876062,87.473144,97.8731,18.4544,82.6036
65914,55.590301,37.673439,184.800003,0.000000,11,1,-0.024141,-0.533631,-5.194929,-3.633588,-0.549618,-0.450382,-15.080714,4.914353,88.041801,98.0486,18.4756,82.6118
66014,55.590301,37.673439,184.800003,0.000000,11,1,0.127042,-0.684326,-5.236708,-0.419847,1.610687,-0.534351,-16.485996,5.690049,87.670379,98.6174,18.4739,82.8468
66114,55.590301,37.673439,184.800003,0.000000,11,1,0.164385,-0.674200,-5.123140,-0.595420,0.251908,0.732824,-16.902784,5.631874,87.716392,99.1171,18.3658,82.9196
66214,55.590301,37.673439,184.800003,0.000000,11,1,-0.175926,-0.717681,-5.160800,0.083969,0.320611,-0.748092,-16.586360,5.114295,88.212402,99.6947,18.4020,83.0240
66314,55.590301,37.673439,184.800003,0.000000,11,1,0.091505,-0.548522,-5.286137,-1.099237,0.251908,-0.022901,-16.519052,5.352447,88.483139,100.1477,18.3671,83.1085
66414,55.590301,37.673439,184.800003,0.000000,11,1,-0.017515,-0.502062,-5.302613,-0.854962,1.267176,-0.977099,-16.566856,5.181038,88.798835,100.6640,18.4070,83.3160
66514,55.590301,37.673439,184.800003,0.000000,11,1,-0.330120,-0.770097,-5.238473,0.137405,-0.748092,0.541985,-16.898317,4.844466,88.513877,101.2043,18.3342,83.2850
66614,55.590301,37.673439,184.800003,0.000000,11,1,-0.125933,-0.661692,-5.144912,-1.511450,-1.251908,0.358779,-16.908782,5.062281,88.458381,101.5643,18.2895,83.2052
66714,55.590301,37.673439,184.800003,0.000000,11,1,-0.169300,-0.501467,-5.101956,-1.541985,-1.664122,0.061069,-17.178506,5.629360,88.306961,101.9100,18.2828,83.0890
66814,55.590301,37.673439,184.800003,0.000000,11,1,-0.127138,-0.796305,-4.968382,-0.015267,-1.068702,-0.015267,-17.504184,6.277234,88.192649,102.4280,18.2719,83.0358
66914,55.590301,37.673439,184.800003,0.000000,11,1,0.067412,-0.775457,-5.250831,-0.267176,1.381679,-0.343511,-17.635597,6.366549,88.394958,103.0021,18.2395,83.2417
67014,55.590301,37.673439,184.800003,0.000000,11,1,0.005373,-0.859441,-5.274957,-0.549618,0.618321,-0.465649,-17.569177,5.977397,88.744728,103.5242,18.2346,83.3720
67115,55.590301,37.673439,184.800003,0.000000,11,1,-0.122922,-0.951764,-4.905419,-1.114504,-1.419847,1.206107,-18.551496,5.845589,87.998062,103.9155,18.1135,83.2509
67215,55.590301,37.673439,184.800003,0.000000,11,1,0.168602,-1.122115,-5.227882,-0.251908,-0.290076,-0.755725,-19.057073,6.703729,87.891143,104.4406,18.1571,83.2959
67315,55.590301,37.673439,184.800003,0.000000,11,1,-0.027153,-1.069104,-5.434422,-0.465649,-1.381679,-0.068702,-18.972284,7.012840,88.348312,104.9041,18.1615,83.2118
67415,55.590301,37.673439,184.800003,0.000000,11,1,0.255336,-1.150705,-5.243769,0.213740,0.770992,-0.740458,-19.072963,7.702519,88.453865,105.5096,18.1750,83.3649
67597,55.590133,37.673534,185.000000,0.000000,11,1,0.157158,-0.726616,-5.031344,-1.221374,-1.503817,-0.114504,-18.686683,7.238540,90.488609,106.2093,18.2000,83.1919
67697,55.590133,37.673534,185.000000,0.000000,11,1,0.140293,-1.228138,-5.098426,-1.358779,-1.732824,-0.091603,-19.868429,8.062570,90.196624,106.5726,18.2189,83.0731
67798,55.590133,37.673534,185.000000,0.000000,11,1,0.101744,-1.128667,-5.139028,-0.450382,0.229008,0.305344,-20.130701,7.747755,90.367782,107.0899,18.1431,83.1408
67898,55.590133,37.673534,185.000000,0.000000,11,1,0.203536,-1.053022,-5.157858,-0.977099,-0.053435,0.305344,-20.486131,7.975827,90.196655,107.5403,18.0759,83.1787
67998,55.590133,37.673534,185.000000,0.000000,11,1,0.323398,-1.071487,-5.170215,0.221374,1.557252,-0.709924,-20.157283,7.910917,90.915016,108.1704,18.0556,83.4100
68098,55.590133,37.673534,185.000000,0.000000,11,1,0.104153,-0.930917,-5.350864,-1.091603,0.473282,-0.038168,-20.036701,7.452250,91.374763,108.6286,18.0037,83.5105
68198,55.590133,37.673534,185.000000,0.000000,11,1,0.242085,-1.007158,-5.260245,-1.061069,0.870229,0.083969,-20.574096,7.818265,91.325996,109.1006,17.9267,83.6459
68298,55.590133,37.673534,185.000000,0.000000,11,1,0.053558,-0.859441,-5.110783,-0.351145,-0.015267,-0.488550,-20.550033,7.476612,91.661750,109.6223,17.9319,83.7126
68398,55.590133,37.673534,185.000000,0.000000,11,1,0.215583,-1.023836,-5.157858,-1.572519,-0.572519,0.931298,-20.928190,7.975039,91.947578,109.9894,17.8219,83.6738
68498,55.590133,37.673534,185.000000,0.000000,11,1,0.101744,-0.917218,-5.108429,0.526718,0.603053,-1.633588,-21.201608,8.112815,91.946510,110.6304,17.9120,83.8433
68598,55.590133,37.673534,185.000000,0.000000,11,1,0.157760,-0.518144,-5.398528,-0.732824,-0.419847,-0.961832,-20.343688,8.141345,93.368614,111.1072,17.9741,83.8882
68698,55.590133,37.673534,185.000000,0.000000,11,1,0.490241,-0.622976,-5.364987,-0.984733,-1.122137,-1.022901,-20.180276,9.206650,93.733917,111.5386,18.0672,83.8672
68798,55.590133,37.673534,185.000000,0.000000,11,1,0.661902,-0.580686,-5.237885,-1.129771,1.320611,-1.244275,-20.331138,10.143255,94.648796,112.0323,18.0903,84.0942
68898,55.590133,37.673534,185.000000,0.000000,11,1,0.520959,-0.447264,-4.901300,-1.251908,-0.412214,-0.595420,-20.457410,10.717509,95.617744,112.4536,18.1172,84.1268
68998,55.590133,37.673534,185.000000,0.000000,11,1,0.469160,-0.685517,-5.226117,-0.038168,1.267176,-0.335878,-20.344526,10.844450,96.210777,113.0435,18.0550,84.3121
69098,55.590133,37.673534,185.000000,0.000000,11,1,0.056570,-0.678965,-5.298494,-0.312977,0.312977,-0.076336,-19.511692,9.675326,97.260276,113.5738,18.0049,84.3937
69198,55.590133,37.673534,185.000000,0.000000,11,1,0.027659,-0.633697,-5.242593,-0.030534,-0.816794,-0.458015,-19.088624,9.589865,97.495964,114.1035,18.0348,84.3823
69298,55.590133,37.673534,185.000000,0.000000,11,1,0.223413,-0.549713,-5.211406,-0.259542,0.572519,-0.648855,-18.630733,9.668599,98.056526,114.6542,18.0247,84.5126
69398,55.590133,37.673534,185.000000,0.000000,11,1,0.294487,-0.353750,-5.221997,-0.679389,-0.450382,-1.190840,-18.159200,9.613361,98.754646,115.1401,18.1058,84.5693
69588,55.590133,37.673534,185.000000,0.000000,11,1,0.090902,-0.253684,-5.223175,-0.450382,0.099237,-0.717557,-17.289321,9.192667,100.326080,116.1257,18.1323,84.7371
69688,55.590133,37.673534,185.000000,0.000000,11,1,0.102949,-0.097033,-5.101368,-0.893130,-0.427481,-1.160305,-16.861324,9.376643,101.075035,116.5912,18.2082,84.7967
69788,55.590133,37.673534,185.000000,0.000000,11,1,0.339661,-0.214968,-5.182572,-0.557252,0.251908,-0.312977,-16.436510,9.960153,102.096694,117.0979,18.1773,84.8805
69888,55.590133,37.673534,185.000000,0.000000,11,1,0.149930,-0.210798,-5.266718,-0.725191,1.190840,-0.839695,-16.054964,9.609846,102.678703,117.6230,18.1494,85.0772
69988,55.590133,37.673534,185.000000,0.000000,11,1,0.071628,-0.207820,-5.221409,-1.221374,-0.641221,-0.030534,-15.979265,9.263134,103.138023,118.0329,18.1339,85.0634
70088,55.590133,37.673534,185.000000,0.000000,11,1,0.126439,-0.375193,-5.216113,-0.625954,-0.564885,-0.946565,-16.019052,9.648976,103.717330,118.5187,18.1956,85.1022
70188,55.590133,37.673534,185.000000,0.000000,11,1,0.164988,-0.429991,-5.375579,-0.587786,0.114504,-0.259542,-15.858325,9.505069,104.396499,119.0172,18.1640,85.1694
70288,55.590133,37.673534,185.000000,0.000000,11,1,0.013203,-0.421652,-5.350864,0.000000,0.519084,-0.984733,-15.290254,8.965464,105.233535,119.5976,18.1753,85.3108
70388,55.590133,37.673534,185.000000,0.000000,11,1,-0.028960,-0.125623,-5.231412,-0.755725,-1.664122,-0.687023,-14.904887,8.978550,105.548561,120.0353,18.2681,85.2374
70488,55.590133,37.673534,185.000000,0.000000,11,1,0.186069,-0.203055,-5.249065,-0.557252,0.259542,-0.885496,-14.564358,9.416801,106.211326,120.5513,18.2815,85.3502
70588,55.590133,37.673534,185.000000,0.000000,11,1,0.020431,-0.271553,-5.334977,-0.190840,0.122137,-0.022901,-14.128545,9.256410,106.955284,121.0854,18.2270,85.4042
70688,55.590133,37.673534,185.000000,0.000000,11,1,-0.118705,-0.088098,-5.063120,-0.541985,-0.427481,0.129771,-13.756666,8.839042,107.076759,121.5661,18.1875,85.3998
70788,55.590133,37.673534,185.000000,0.000000,11,1,0.128246,-0.366854,-5.570351,-0.488550,-1.435114,-1.183206,-13.845564,9.578747,106.867179,122.0466,18.3128,85.3779
70888,55.590133,37.673534,185.000000,0.000000,11,1,0.181250,-0.384127,-5.385582,0.038168,1.916030,-1.137405,-13.515279,9.038208,107.852165,122.6730,18.2550,85.6527
70988,55.590133,37.673534,185.000000,0.000000,11,1,0.079458,-0.004114,-5.451487,-1.748092,-0.984733,0.320611,-13.695923,9.653239,107.933273,123.0139,18.2298,85.5870
71088,55.590133,37.673534,185.000000,0.000000,11,1,0.372789,-0.306100,-4.911892,0.053435,2.793893,-1.022901,-13.566846,10.158138,108.662567,123.6629,18.1098,85.9312
71188,55.590133,37.673534,185.000000,0.000000,11,1,-0.227725,0.029241,-5.224939,-0.488550,-1.587786,-1.435114,-13.234921,9.004814,109.958084,124.1454,18.2651,85.9155
71288,55.590133,37.673534,185.000000,0.000000,11,1,0.592636,-0.312651,-5.633314,-2.641221,-0.045802,0.267176,-13.220521,10.098607,111.310997,124.4234,18.1931,85.9341
71388,55.590133,37.673534,185.000000,0.000000,11,1,-0.100033,-0.500275,-5.432657,-0.839695,-0.847328,-1.267176,-14.469581,9.633913,110.406867,124.8884,18.2927,85.9746
71488,55.589885,37.673656,187.000000,0.000000,11,1,0.271599,-0.727807,-5.876337,0.511450,0.671756,1.213740,-14.211039,9.118066,111.059692,125.4826,18.1017,85.9963
71604,55.589885,37.673656,187.000000,7.011878,11,1,-0.438538,-0.393062,-5.031933,2.160305,-0.458015,-2.450382,-13.197589,7.899531,110.628311,126.4093,18.3008,86.1693
71704,55.589885,37.673656,187.000000,7.011878,11,1,0.276417,0.024476,-5.187868,-1.442748,0.030534,1.473282,-11.753812,8.428976,111.886833,126.7845,18.1267,86.1156
71804,55.589885,37.673656,187.000000,7.011878,11,1,-0.341564,-0.258449,-4.653569,1.709924,1.213740,-2.206107,-11.215611,7.900575,112.154747,127.5783,18.1748,86.3932
71904,55.589885,37.673656,187.000000,7.011878,11,1,0.339059,0.331822,-5.304966,-2.687023,-1.770992,-0.709924,-10.902432,8.776848,113.249382,127.8250,18.2846,86.3264
72004,55.589885,37.673656,187.000000,7.011878,11,1,0.362549,-0.671817,-5.157858,-1.832061,-1.610687,-0.198473,-13.113827,9.673512,113.811386,128.1510,18.3446,86.2403
72104,55.589885,37.673656,187.000000,7.011878,11,1,0.417360,-0.747463,-5.691569,0.137405,1.206107,-0.923664,-13.778449,10.472144,114.239837,128.7621,18.2868,86.4346
72204,55.589885,37.673656,187.000000,7.011878,11,1,-0.107261,-0.615828,-4.970736,-0.465649,-1.091603,1.435114,-13.725765,9.071586,114.321640,129.2047,18.1886,86.2840
72304,55.589885,37.673656,187.000000,7.011878,11,1,0.162579,-0.224498,-5.119021,1.641221,-1.068702,-2.519084,-12.792068,10.118034,114.164520,129.9413,18.3951,86.3994
72404,55.589885,37.673656,187.000000,7.011878,11,1,0.467353,-0.223902,-5.239651,-1.893130,-0.458015,0.099237,-12.152259,10.434134,115.609863,130.2848,18.3610,86.3884
72504,55.589885,37.673656,187.000000,7.011878,11,1,0.487230,-0.793326,-5.030167,-0.404580,-1.503817,0.206107,-13.434705,11.359283,115.310363,130.7484,18.3869,86.2860
72604,55.589885,37.673656,187.000000,7.011878,11,1,0.107165,-0.857655,-5.120198,-0.702290,1.587786,0.007634,-13.726571,10.286716,116.101966,131.2639,18.2256,86.4433
72704,55.589885,37.673656,187.000000,7.011878,11,1,0.078254,-0.840977,-5.193752,-0.396947,-0.977099,0.129771,-14.708838,10.230188,115.288230,131.7433,18.2239,86.3884
72804,55.589885,37.673656,187.000000,7.011878,11,1,0.252927,-0.675391,-5.142559,-0.786260,0.435115,-1.320611,-14.329663,9.987423,116.106170,132.2503,18.2360,86.5461
72904,55.589885,37.673656,187.000000,7.011878,11,1,0.325808,-0.408548,-5.447368,-1.564885,0.206107,-1.374046,-14.477789,10.325432,117.001899,132.6752,18.2662,86.6899
73004,55.589885,37.673656,187.000000,7.011878,11,1,0.413746,-0.736146,-5.264365,-1.152672,0.236641,-0.564885,-15.023224,10.578336,117.902870,133.1239,18.2341,86.7784
73104,55.589885,37.673656,187.000000,7.011878,11,1,0.378209,-0.903518,-5.279664,-0.572519,0.190840,-0.091603,-15.753540,10.795311,118.199874,133.6187,18.1699,86.8288
73204,55.589885,37.673656,187.000000,7.011878,11,1,0.464341,-0.926748,-5.099603,-1.061069,0.137405,-0.374046,-16.189945,11.069253,118.589317,134.0695,18.1295,86.8951
73304,55.589885,37.673656,187.000000,7.011878,11,1,0.457113,-1.177509,-5.272014,-0.534351,1.068702,0.229008,-16.978599,11.097270,118.792747,134.5808,17.9803,86.9869
73404,55.589885,37.673656,187.000000,7.011878,11,1,nan,nan,nan,nan,nan,nan,0.000000,0.000000,0.000000,nan,nan,nan
73507,55.589885,37.673656,187.000000,7.011878,11,1,0.192092,-1.040514,-5.191399,-0.885496,-1.587786,-0.328244,-17.760295,10.007997,119.704261,135.0208,18.0595,86.9183
73609,55.589885,37.673656,187.000000,7.011878,11,1,0.325205,-0.982142,-5.319678,-0.511450,1.000000,-0.465649,-18.025449,10.406380,119.954917,135.5585,17.9607,87.0569
73709,55.589885,37.673656,187.000000,7.011878,11,1,0.315568,-1.089355,-5.270249,-1.038168,-0.343511,0.335878,-18.549028,10.593611,120.480033,135.9836,17.9031,87.0330
73809,55.589885,37.673656,187.000000,7.011878,11,1,0.339661,-1.136410,-5.164919,-1.000000,0.236641,-0.763359,-19.068101,10.676083,120.901023,136.4510,17.8798,87.1342
73909,55.589885,37.673656,187.000000,7.011878,11,1,0.238471,-1.004776,-5.164919,-0.839695,-0.053435,-0.229008,-19.318561,10.550054,121.511352,136.9153,17.8403,87.1735
74009,55.589885,37.673656,187.000000,7.011878,11,1,0.083674,-1.083399,-5.111371,-0.053435,-0.366412,-0.145038,-19.658329,10.393534,121.770179,137.4493,17.8176,87.1835
74109,55.589885,37.673656,187.000000,7.011878,11,1,0.083072,-0.863611,-5.275545,-0.763359,0.473282,-0.732824,-19.531251,10.190860,122.395095,137.9444,17.7724,87.2983
74209,55.589885,37.673656,187.000000,7.011878,11,1,0.122223,-0.750441,-5.404412,-0.648855,-0.496183,-1.045801,-19.338706,10.175827,123.095863,138.4375,17.8193,87.3694
74309,55.589885,37.673656,187.000000,7.011878,11,1,0.258348,-0.635484,-5.376167,-0.610687,0.030534,-0.916030,-19.198251,10.354247,123.531753,138.9426,17.8175,87.4672
74409,55.589885,37.673656,187.000000,7.011878,11,1,0.238471,-0.372215,-5.174922,-0.526718,1.007634,-0.893130,-18.630479,10.428814,124.492073,139.4760,17.7393,87.6301
74509,55.589885,37.673656,187.000000,7.011878,11,1,0.107767,-0.207225,-5.035463,-0.862595,0.320611,-0.526718,-18.091228,10.190299,125.179244,139.9523,17.6886,87.7163
74609,55.589885,37.673656,187.000000,7.011878,11,1,0.068014,-0.423439,-5.194929,-0.801527,0.038168,-0.267176,-17.960449,10.117383,125.659446,140.4223,17.6422,87.7621
74710,55.589885,37.673656,187.000000,7.011878,11,1,-0.025346,-0.344816,-5.371460,-0.809160,-0.076336,-0.473282,-17.508483,9.541609,125.770675,140.8989,17.6171,87.8171
74810,55.589885,37.673656,187.000000,7.011878,11,1,-0.128342,-0.240580,-5.395586,-0.801527,-0.511450,-0.358779,-17.013015,9.017162,126.218894,141.3600,17.6186,87.8334
74910,55.589885,37.673656,187.000000,7.011878,11,1,0.034886,-0.295378,-5.344392,-0.419847,0.221374,-0.503817,-16.579778,9.206183,126.513496,141.8772,17.5715,87.9094
75010,55.589885,37.673656,187.000000,7.011878,11,1,0.018624,-0.183399,-5.296140,-0.923664,0.236641,-0.473282,-16.244623,9.096354,127.098243,142.3435,17.5207,87.9833
75110,55.589885,37.673656,187.000000,7.011878,11,1,0.146918,-0.372810,-5.191399,-0.870229,-0.541985,-0.381679,-16.429109,9.567853,127.350074,142.7976,17.5256,87.9996
75210,55.589885,37.673656,187.000000,7.011878,11,1,0.322194,-0.398423,-5.247889,-0.129771,0.587786,-0.671756,-16.255409,9.864889,127.667877,143.3545,17.4574,88.1114
75310,55.589885,37.673656,187.000000,7.011878,11,1,-0.036790,-0.241176,-5.195518,-0.702290,0.129771,-0.236641,-15.695511,9.056835,128.640670,143.8343,17.3993,88.1573
75410,55.589885,37.673656,187.000000,7.011878,11,1,nan,nan,nan,nan,nan,nan,0.000000,0.000000,0.000000,nan,nan,nan
75515,55.589885,37.673656,187.000000,7.011878,11,1,-0.060883,-0.166126,-5.399705,-0.793893,-0.786260,-0.763359,-14.942756,8.239839,129.563308,144.3247,17.4483,88.1927
75615,55.589885,37.673656,187.000000,7.011878,11,1,0.083072,-0.399614,-5.312616,-0.213740,0.076336,-0.908397,-14.911359,8.446059,129.924896,144.8693,17.4328,88.2917
75715,55.589885,37.673656,187.000000,7.011878,11,1,-0.034380,-0.231646,-5.239651,-0.473282,0.022901,-0.839695,-14.720393,8.213645,130.484725,145.3851,17.4168,88.3814
75815,55.589885,37.673656,187.000000,7.011878,11,1,0.055365,-0.083333,-5.178453,-0.664122,-0.106870,-1.305343,-14.324404,8.293186,131.254013,145.8916,17.4371,88.5036
75915,55.589885,37.673656,187.000000,7.011878,11,1,0.124632,-0.217350,-5.197872,-1.061069,-0.564885,-0.450382,-14.354899,8.719496,132.007522,146.3281,17.4467,88.5248
76015,55.589885,37.673656,187.000000,7.011878,11,1,0.191490,-0.303121,-5.396763,-0.862595,1.290076,-0.389313,-14.548031,8.900644,132.527130,146.8149,17.2980,88.6478
76115,55.589885,37.673656,187.000000,7.011878,11,1,-0.053052,-0.256662,-5.279664,-0.458015,0.526718,-0.732824,-14.388767,8.356693,133.093612,147.3375,17.2310,88.7561
76215,55.589885,37.673656,187.000000,7.011878,11,1,-0.050041,-0.220329,-5.336742,-0.328244,0.908397,-0.068702,-14.033206,8.046580,133.700149,147.8617,17.0953,88.8264
76315,55.589885,37.673656,187.000000,7.011878,11,1,-0.098226,0.025072,-5.340273,-0.687023,0.427481,-0.603053,-13.552104,7.874026,134.022354,148.3557,17.0281,88.9162
76416,55.589885,37.673656,187.000000,7.011878,11,1,-0.041608,0.399129,-5.591535,-0.435115,1.190840,-1.778626,-12.689446,7.758438,135.196197,148.9229,16.9553,89.1543
76516,55.589885,37.673656,187.000000,7.011878,11,1,-0.027755,0.386025,-5.450899,-1.145038,-0.488550,0.534351,-12.389659,7.602185,135.656326,149.3265,16.9068,89.0917
76616,55.589885,37.673656,187.000000,7.011878,11,1,-0.266876,0.544463,-5.402647,-0.297710,0.236641,-0.526718,-11.819068,6.964968,135.930023,149.8536,16.8499,89.1626
76716,55.589885,37.673656,187.000000,7.011878,11,1,-0.184961,0.695753,-5.281429,-1.152672,-0.419847,-0.549618,-11.118462,6.800452,136.429809,150.2857,16.8505,89.2010
76816,55.589885,37.673656,187.000000,7.011878,11,1,-0.128945,0.440823,-5.217290,-0.755725,-1.969466,0.053435,-11.497848,7.658991,136.166854,150.7185,16.9560,89.1047
76916,55.589885,37.673656,187.000000,7.011878,11,1,0.166795,0.093569,-5.236708,-0.099237,0.129771,-0.824427,-11.020612,8.315906,136.516540,151.2714,16.9213,89.1960
77016,55.589885,37.673656,187.000000,7.011878,11,1,0.083072,-0.075590,-5.173745,-0.526718,-0.267176,-1.328244,-10.934590,8.167284,137.079757,151.7893,16.9447,89.3135
77116,55.589885,37.673656,187.000000,7.011878,11,1,0.106563,-0.120858,-5.259657,-0.236641,-0.694656,-1.641221,-10.717761,8.389450,138.226898,152.3386,17.0194,89.4392
77216,55.589885,37.673656,187.000000,7.011878,11,1,0.245096,-0.254280,-5.372048,-0.519084,0.427481,-1.374046,-10.685173,8.701705,139.385421,152.8685,16.9811,89.5948
77316,55.589885,37.673656,187.000000,7.011878,11,1,0.265575,-0.300739,-5.289667,-1.557252,-0.335878,-0.480916,-10.977219,8.680468,140.203292,153.2595,16.9692,89.6307
77416,55.589885,37.673656,187.000000,7.011878,11,1,nan,nan,nan,nan,nan,nan,0.000000,0.000000,0.000000,nan,nan,nan
77526,55.589633,37.673606,188.300003,7.011878,10,1,nan,nan,nan,nan,nan,nan,0.000000,0.000000,0.000000,nan,nan,nan
77626,55.589633,37.673606,188.300003,7.011878,10,1,-0.018720,-0.253684,-5.253773,-1.129771,-0.137405,-0.832061,-11.341843,8.680253,142.919754,153.7056,16.9550,89.7086
77726,55.589633,37.673606,188.300003,7.011878,10,1,0.048740,-0.216159,-5.413239,-0.549618,1.000000,-0.458015,-11.281360,8.450757,143.686935,154.2144,16.8215,89.8034
77826,55.589633,37.673606,188.300003,7.011878,10,1,-0.054257,-0.236411,-5.376756,-0.442748,0.351145,-0.480916,-11.365832,8.143778,144.150100,154.7257,16.7468,89.8699
77926,55.589633,37.673606,188.300003,7.011878,10,1,-0.004264,-0.179826,-5.350864,-0.503817,0.114504,-0.366412,-11.129483,8.019513,144.699188,155.2244,16.6881,89.9144
78026,55.589633,37.673606,188.300003,7.011878,10,1,0.050547,-0.261427,-5.214348,-0.374046,-0.992366,-0.992366,-11.117053,8.362430,145.092147,155.7392,16.7557,89.9698
78126,55.589633,37.673606,188.300003,7.011878,10,1,0.035489,-0.156596,-5.304378,-0.656488,-0.297710,-0.595420,-11.067614,8.592890,145.815643,156.2236,16.7433,90.0175
78226,55.589633,37.673606,188.300003,7.011878,10,1,0.166192,-0.212585,-5.320266,-0.412214,1.038168,-1.030534,-11.096845,8.583598,146.438720,156.7602,16.6252,90.1624
78326,55.589633,37.673606,188.300003,7.011878,10,1,0.000554,-0.148257,-5.196694,-1.152672,-0.259542,-0.603053,-11.218724,8.110644,147.536636,157.1955,16.6088,90.2121
78426,55.589633,37.673606,188.300003,7.011878,10,1,0.045126,-0.394849,-5.244946,-1.862595,-0.358779,0.312977,-11.903217,8.047907,147.761703,157.5334,16.5659,90.1695
78526,55.589633,37.673606,188.300003,7.011878,10,1,0.045728,-0.356728,-5.363222,-0.778626,1.007634,-0.908397,-12.378084,7.665676,148.444366,158.0284,16.4430,90.2984
78626,55.589633,37.673606,188.300003,7.011878,10,1,-0.054859,-0.212585,-5.284960,-1.053435,-0.061069,-0.557252,-12.433925,7.354426,149.087799,158.4742,16.4053,90.3510
78726,55.589633,37.673606,188.300003,7.011878,10,1,-0.007276,0.033411,-5.357337,-1.328244,-0.458015,-0.374046,-12.614339,7.418015,149.588165,158.8831,16.3976,90.3704
78826,55.589633,37.673606,188.300003,7.011878,10,1,-0.057871,0.245456,-5.237297,-0.755725,-2.190840,-1.480916,-12.526609,8.470144,150.331558,159.3617,16.5911,90.4332
78926,55.589633,37.673606,188.300003,7.011878,10,1,0.176432,0.408659,-5.153739,-1.114504,-1.648855,-2.068702,-12.228048,10.063879,151.751327,159.8272,16.7538,90.5749
79026,55.589633,37.673606,188.300003,7.011878,10,1,0.452897,0.424145,-5.294375,-1.984733,-0.725191,-0.946565,-12.437001,11.600862,153.032897,160.1840,16.7904,90.6408
79126,55.589633,37.673606,188.300003,7.011878,10,1,0.275213,0.210909,-5.322031,-0.557252,-0.587786,-0.709924,-12.679370,12.082833,153.401367,160.6784,16.8056,90.6885
79226,55.589633,37.673606,188.300003,7.011878,10,1,0.231845,0.056640,-5.342038,0.022901,1.335878,-0.572519,-12.049284,11.642194,153.925949,161.2457,16.6340,90.7883
79326,55.589633,37.673606,188.300003,7.011878,10,1,0.304124,0.109056,-5.486793,-0.152672,0.458015,-1.435114,-10.998792,11.182885,154.622970,161.8108,16.5721,90.9425
79428,55.589633,37.673606,188.300003,7.011878,10,1,0.472774,0.209718,-5.257892,-1.541985,-0.419847,-1.603053,-10.689138,11.368801,156.116256,162.2419,16.5981,91.0875
79592,55.589572,37.673545,188.399993,7.011878,10,1,0.700451,0.066170,-5.196694,-1.183206,-0.137405,-1.519084,-10.813361,12.781356,158.633407,162.9942,16.5893,91.3217
79692,55.589572,37.673545,188.399993,7.011878,10,1,0.636003,-0.158383,-5.118432,-1.229008,-0.045802,-0.717557,-10.877972,13.060411,159.645889,163.4263,16.5506,91.3872
79792,55.589572,37.673545,188.399993,7.011878,10,1,0.493253,-0.246536,-5.205521,-1.000000,-0.488550,-1.091603,-11.074501,13.163222,160.637832,163.8881,16.5645,91.4768
79892,55.589572,37.673545,188.399993,7.011878,10,1,0.661902,-0.294187,-5.161388,-1.229008,-0.145038,-1.259542,-11.419965,13.598695,161.815093,164.3347,16.5492,91.5931
79992,55.589572,37.673545,188.399993,7.011878,10,1,0.695632,-0.287635,-5.075477,-1.061069,0.679389,-1.748092,-11.389022,13.548805,163.437591,164.8183,16.4665,91.7813
80092,55.589572,37.673545,188.399993,7.011878,10,1,0.754058,-0.217946,-5.258481,-1.114504,0.679389,-1.335878,-11.483441,13.739671,164.819900,165.2844,16.3717,91.9271
80192,55.589572,37.673545,188.399993,7.011878,10,1,0.605284,-0.288231,-5.361456,-0.778626,0.770992,-1.137405,-11.596508,13.590204,166.193176,165.7786,16.2619,92.0544
80292,55.589572,37.673545,188.399993,7.011878,10,1,0.443260,-0.138727,-5.368518,-0.564885,-0.022901,-1.320611,-11.581854,13.477530,167.380584,166.2933,16.2324,92.1792
80392,55.589572,37.673545,188.399993,7.011878,10,1,0.489036,0.058427,-5.306144,-0.297710,0.503817,-2.312977,-10.740968,13.399217,168.974777,166.8661,16.1737,92.4169
80492,55.589572,37.673545,188.399993,7.011878,10,1,0.357128,0.196614,-5.209640,-0.740458,-0.984733,-1.312977,-10.219518,13.525017,170.367401,167.3566,16.2356,92.5180
80592,55.589572,37.673545,188.399993,7.011878,10,1,0.251722,0.305614,-5.088422,-0.412214,0.564885,-0.832061,-9.753825,13.250941,171.330718,167.8760,16.1350,92.6053
80692,55.589572,37.673545,188.399993,7.011878,10,1,0.140293,0.306210,-5.306732,-0.885496,-0.587786,-0.282443,-9.064594,12.944130,172.124481,168.3253,16.1352,92.6110
80792,55.589572,37.673545,188.399993,7.011878,10,1,0.336047,0.142411,-5.371460,-0.229008,0.656488,-0.847328,-8.643489,13.016572,172.537460,168.8633,16.0245,92.6999
80892,55.589572,37.673545,188.399993,7.011878,10,1,0.148123,0.377686,-5.329681,-1.175572,-0.709924,-2.351145,-8.112004,12.389744,173.493148,169.3414,16.0757,92.9145
80992,55.589572,37.673545,188.399993,7.011878,10,1,0.594443,0.223417,-5.269072,-1.183206,-0.732824,-1.572519,-8.028147,13.374827,175.246871,169.7968,16.1133,93.0495
