time_ms,lat,lon,ax,ay,az,gx,gy,gz,roll_deg,pitch_deg,yaw_deg
7136,55.590774,37.672744,2.206257,1.246182,8.989030,-0.076336,-0.015267,-0.015267,0.282425,10.763463,1.403749
7236,55.590774,37.672744,2.209848,1.240196,8.978257,-0.076336,-0.015267,-0.015267,0.276420,11.037483,1.527039
7336,55.590774,37.672744,2.196680,1.221043,8.983045,-0.061069,-0.015267,-0.015267,0.233972,11.298296,1.568280
7436,55.590774,37.672744,2.234987,1.231817,8.986637,-0.061069,-0.015267,-0.015267,0.264760,11.550244,1.695331
7536,55.590774,37.672744,2.213439,1.240196,8.966286,-0.061069,-0.015267,-0.015267,0.282127,11.768233,1.831385
7636,55.590774,37.672744,2.203863,1.231817,8.986637,-0.061069,-0.015267,-0.015267,0.264085,11.965209,1.970997
7736,55.590774,37.672744,2.212242,1.246182,8.967483,-0.061069,-0.015267,-0.015267,0.302643,12.161210,2.097695
7836,55.590774,37.672744,2.208651,1.228225,8.941146,-0.061069,-0.015267,-0.015267,0.286186,12.351957,2.245250
7936,55.590774,37.672744,2.206257,1.231817,8.957906,-0.061069,-0.015267,-0.015267,0.310719,12.513375,2.373756
8036,55.590774,37.672744,2.195483,1.248576,9.011775,-0.061069,-0.015267,-0.015267,0.336396,12.673933,2.509010
8136,55.590774,37.672744,2.223016,1.254562,8.965088,-0.061069,-0.015267,-0.015267,0.370281,12.828039,2.651134
8236,55.590774,37.672744,2.212242,1.235408,8.983045,-0.061069,-0.015267,-0.015267,0.354328,12.969380,2.799029
8336,55.590774,37.672744,2.219425,1.238999,8.968680,-0.076336,-0.015267,-0.015267,0.366876,13.096143,2.943868
8436,55.590774,37.672744,2.203863,1.244985,8.923191,-0.076336,-0.015267,-0.015267,0.364856,13.201622,3.089923
8536,55.590774,37.672744,2.208651,1.237802,8.957906,-0.061069,-0.015267,-0.015267,0.370239,13.306903,3.235257
8636,55.590774,37.672744,2.224213,1.242591,8.989030,-0.076336,-0.015267,-0.015267,0.377831,13.419835,3.395574
8736,55.590774,37.672744,2.214637,1.246182,8.968680,-0.076336,-0.015267,-0.015267,0.383111,13.504257,3.541117
8836,55.590774,37.672744,2.214637,1.233014,8.971075,-0.061069,-0.015267,-0.015267,0.375175,13.589066,3.695572
9036,55.590770,37.672744,2.213439,1.248576,8.967483,-0.076336,-0.015267,-0.015267,0.390018,13.750720,4.015602
9136,55.590770,37.672744,2.217031,1.241394,8.973468,-0.061069,-0.015267,-0.015267,0.401681,13.814079,4.153474
9236,55.590770,37.672744,2.217031,1.244985,8.953118,-0.076336,-0.015267,-0.015267,0.400946,13.877822,4.307400
9336,55.590770,37.672744,2.211045,1.242591,8.963891,-0.076336,-0.015267,-0.015267,0.408063,13.933456,4.466809
9436,55.590770,37.672744,2.219425,1.247379,8.987833,-0.076336,-0.015267,-0.015267,0.407374,13.990254,4.620844
9536,55.590770,37.672744,2.231396,1.242591,8.972271,-0.061069,-0.015267,-0.015267,0.406538,14.040122,4.774937
9636,55.590770,37.672744,2.220622,1.241394,8.977060,-0.061069,-0.015267,-0.015267,0.412986,14.089691,4.928216
9736,55.590770,37.672744,2.225410,1.238999,8.978257,-0.076336,-0.015267,-0.015267,0.413238,14.138634,5.088601
9836,55.590770,37.672744,2.221819,1.241394,8.984242,-0.061069,-0.015267,-0.015267,0.419956,14.188179,5.241966
9936,55.590770,37.672744,2.225410,1.242591,8.981848,-0.061069,-0.015267,-0.015267,0.427027,14.223776,5.402475
10036,55.590770,37.672744,2.221819,1.236605,8.979454,-0.061069,-0.015267,-0.015267,0.426500,14.266692,5.556814
10136,55.590770,37.672744,2.217031,1.241394,8.968680,-0.061069,-0.015267,-0.015267,0.426741,14.287810,5.724309
10236,55.590770,37.672744,2.217031,1.255759,8.959103,-0.061069,-0.015267,-0.015267,0.460024,14.322166,5.860004
10336,55.590770,37.672744,2.217031,1.249773,8.993819,-0.076336,-0.015267,-0.015267,0.445199,14.344038,6.022156
10436,55.590770,37.672744,2.209848,1.238999,8.971075,-0.061069,-0.015267,-0.015267,0.437663,14.366444,6.184556
10536,55.590770,37.672744,2.226608,1.252167,8.975863,-0.076336,-0.015267,-0.015267,0.437264,14.387614,6.344898
10636,55.590770,37.672744,2.219425,1.249773,8.987833,-0.061069,-0.015267,-0.015267,0.444155,14.409269,6.505538
10736,55.590770,37.672744,2.230199,1.248576,8.965088,-0.061069,-0.015267,-0.015267,0.444370,14.438231,6.667123
10836,55.590770,37.672744,2.234987,1.247379,8.972271,-0.076336,-0.015267,-0.015267,0.451737,14.465911,6.826550
10940,55.590770,37.672744,2.221819,1.250970,8.977060,-0.061069,-0.015267,-0.015267,0.453495,14.487778,7.002323
11081,55.590770,37.672744,2.217031,1.238999,8.997410,-0.076336,-0.015267,-0.015267,0.454080,14.502576,7.228641
11181,55.590770,37.672744,2.218228,1.250970,8.980651,-0.061069,-0.015267,-0.015267,0.453694,14.517678,7.390192
11281,55.590770,37.672744,2.217031,1.244985,8.966286,-0.061069,-0.015267,-0.015267,0.453349,14.532781,7.551754
11381,55.590770,37.672744,2.223016,1.248576,8.984242,-0.076336,-0.015267,-0.015267,0.452959,14.547003,7.711867
11481,55.590770,37.672744,2.214637,1.248576,8.979454,-0.076336,-0.015267,-0.015267,0.452698,14.562109,7.873407
11581,55.590770,37.672744,2.221819,1.242591,8.971075,-0.076336,-0.015267,-0.015267,0.451983,14.570296,8.034914
11681,55.590770,37.672744,2.225410,1.215057,8.991425,-0.076336,0.000000,-0.015267,0.364688,14.548702,8.219567
11781,55.590770,37.672744,2.211045,1.235408,8.968680,-0.076336,-0.015267,-0.015267,0.339468,14.530023,8.374865
11881,55.590770,37.672744,2.189497,1.203086,8.956709,-0.061069,-0.015267,0.000000,0.274688,14.505923,8.337798
11981,55.590770,37.672744,2.136825,1.241394,8.929176,-0.061069,-0.015267,0.000000,0.241934,14.506825,8.137560
12081,55.590770,37.672744,2.189497,1.228225,8.977060,-0.061069,-0.015267,0.000000,0.240439,14.507610,8.239904
12181,55.590770,37.672744,2.294842,1.191115,9.012972,-0.061069,-0.015267,0.061069,0.183002,14.524740,8.123538
12281,55.590770,37.672744,2.243367,1.185130,8.960300,-0.061069,-0.015267,0.122137,-0.039733,14.503544,7.187602
12381,55.590770,37.672744,2.087744,1.163582,8.971075,-0.076336,-0.015267,0.045802,-0.389390,14.455445,5.947292
12481,55.590770,37.672744,2.280477,1.119289,9.005790,-0.076336,-0.015267,0.061069,-0.573380,14.451077,5.416064
12581,55.590770,37.672744,2.300828,1.094150,9.004593,-0.076336,-0.015267,0.030534,-0.675886,14.453173,5.181698
12681,55.590770,37.672744,2.274492,1.071405,8.980651,-0.061069,-0.015267,0.015267,-0.769646,14.468801,5.011584
12781,55.590770,37.672744,2.273294,1.065420,8.978257,-0.061069,-0.015267,0.000000,-0.796246,14.498531,5.023566
12881,55.590770,37.672744,2.246958,1.059434,8.995017,-0.061069,-0.015267,0.000000,-0.866533,14.519996,4.865119
13181,55.590770,37.672744,2.413355,1.043872,8.991425,-0.076336,-0.015267,0.106870,-0.960491,14.665040,4.889431
13281,55.590770,37.672744,2.287660,1.037886,9.003396,-0.076336,-0.015267,-0.015267,-0.977639,14.659022,4.927702
13381,55.590770,37.672744,2.415750,1.024718,9.008184,-0.076336,-0.015267,0.076336,-1.006682,14.717723,4.970552
13481,55.590770,37.672744,2.288857,1.027112,8.991425,-0.061069,-0.015267,0.000000,-1.037451,14.710910,4.958839
13581,55.590770,37.672744,2.272097,1.029507,8.987833,-0.061069,-0.015267,-0.015267,-1.077134,14.733783,4.928922
13681,55.590770,37.672744,2.292448,1.012747,8.989030,-0.076336,-0.015267,-0.015267,-1.070572,14.770487,5.082040
13782,55.590770,37.672744,2.248155,1.013944,8.983045,-0.061069,-0.015267,0.000000,-1.118332,14.792724,5.044974
13882,55.590770,37.672744,2.300828,1.010353,8.986637,-0.061069,-0.015267,-0.015267,-1.111979,14.823445,5.198993
13982,55.590770,37.672744,2.309207,1.016339,9.002199,-0.076336,-0.015267,-0.015267,-1.104575,14.853272,5.359167
14082,55.590770,37.672744,2.266112,1.010353,8.987833,-0.061069,-0.015267,0.000000,-1.153301,14.876475,5.316030
14182,55.590770,37.672744,2.313996,1.007959,9.011775,-0.076336,-0.015267,-0.015267,-1.145796,14.906350,5.476240
14282,55.590770,37.672744,2.309207,0.992397,9.010579,-0.076336,-0.015267,-0.015267,-1.146003,14.922648,5.637111
14382,55.590770,37.672744,2.300828,0.986411,8.927979,-0.076336,-0.015267,-0.015267,-1.161473,14.918792,5.799425
14482,55.590770,37.672744,2.308010,0.999579,8.989030,-0.076336,-0.015267,-0.015267,-1.161312,14.942951,5.961490
14582,55.590770,37.672744,2.312799,1.009156,8.997410,-0.061069,-0.015267,-0.015267,-1.154230,14.958940,6.121392
14682,55.590770,37.672744,2.304419,0.992397,8.990228,-0.076336,-0.015267,-0.015267,-1.153945,14.983090,6.283484
14782,55.590770,37.672744,2.245761,0.994791,8.996213,-0.076336,-0.015267,-0.015267,-1.237720,14.977728,6.147921
14882,55.590770,37.672744,2.335544,0.970849,8.981848,-0.076336,-0.015267,0.000000,-1.231162,15.000709,6.300816
15036,55.590770,37.672744,2.313996,0.981623,8.991425,-0.061069,-0.015267,-0.015267,-1.269294,15.018217,6.394036
15136,55.590770,37.672744,2.306813,0.987608,9.012972,-0.076336,-0.015267,-0.015267,-1.261713,15.042164,6.555263
15236,55.590770,37.672744,2.310405,0.974440,8.961498,-0.061069,-0.015267,-0.015267,-1.261582,15.058615,6.716007
15336,55.590770,37.672744,2.308010,0.973243,8.975863,-0.061069,-0.015267,-0.015267,-1.261816,15.069058,6.877887
15436,55.590770,37.672744,2.313996,0.973243,8.981848,-0.061069,-0.015267,-0.015267,-1.254431,15.085124,7.037662
15536,55.590770,37.672744,2.310405,0.978031,8.985440,-0.076336,-0.015267,-0.015267,-1.254194,15.102483,7.199666
15636,55.590770,37.672744,2.312799,0.991199,9.001002,-0.061069,-0.015267,-0.015267,-1.246197,15.112540,7.367742
15736,55.590770,37.672744,2.304419,0.985214,8.987833,-0.076336,-0.015267,-0.015267,-1.246275,15.122042,7.528185
15836,55.590770,37.672744,2.322376,0.984017,9.002199,-0.061069,-0.015267,-0.015267,-1.238742,15.138972,7.689268
15936,55.590770,37.672744,2.261323,0.974440,9.004593,-0.076336,-0.015267,-0.015267,-1.313207,15.127182,7.574121
16036,55.590770,37.672744,2.318784,0.980426,9.004593,-0.076336,-0.015267,-0.015267,-1.305643,15.143270,7.733744
16136,55.590770,37.672744,2.313996,0.962469,9.001002,-0.061069,-0.015267,-0.015267,-1.305669,15.153775,7.895568
16236,55.590770,37.672744,2.308010,0.969652,8.987833,-0.061069,-0.015267,-0.015267,-1.305666,15.164285,8.057386
16336,55.590770,37.672744,2.321178,0.970849,8.991425,-0.076336,-0.015267,-0.015267,-1.305615,15.173863,8.217634
16436,55.590770,37.672744,2.312799,0.964863,8.995017,-0.061069,-0.015267,-0.015267,-1.305553,15.184369,8.379401
16536,55.590770,37.672744,2.321178,0.968455,8.998607,-0.061069,-0.015267,-0.015267,-1.305462,15.194875,8.541157
16636,55.590770,37.672744,2.318784,0.969652,9.002199,-0.061069,-0.015267,-0.015267,-1.304366,15.204463,8.708311
16736,55.590770,37.672744,2.313996,0.970849,8.986637,-0.061069,-0.015267,-0.015267,-1.304216,15.214968,8.869997
16836,55.590770,37.672744,2.449268,0.956484,8.996213,-0.076336,-0.015267,0.091603,-1.345213,15.246478,8.877639
17136,55.590766,37.672744,2.317587,0.968455,8.991425,-0.061069,-0.015267,-0.015267,-1.364019,15.233675,9.236435
17236,55.590766,37.672744,2.331953,0.956484,8.999805,-0.076336,-0.015267,-0.015267,-1.356618,15.243741,9.397130
17336,55.590766,37.672744,2.323573,0.954089,9.002199,-0.061069,-0.015267,-0.015267,-1.355933,15.247410,9.565576
17436,55.590766,37.672744,2.317587,0.950498,8.987833,-0.061069,-0.015267,-0.015267,-1.356202,15.251072,9.726930
17536,55.590766,37.672744,2.321178,0.964863,8.997410,-0.061069,-0.015267,-0.015267,-1.354930,15.261648,9.895449
17636,55.590766,37.672744,2.324770,0.955286,8.991425,-0.061069,-0.015267,-0.015267,-1.355168,15.265307,10.056721
17736,55.590766,37.672744,2.318784,0.957681,8.985440,-0.061069,-0.015267,-0.015267,-1.354811,15.275875,10.218112
17836,55.590766,37.672744,2.319981,0.948104,8.998607,-0.061069,-0.015267,-0.015267,-1.355020,15.279531,10.379298
17936,55.590766,37.672744,2.317587,0.957681,8.998607,-0.061069,-0.015267,-0.015267,-1.354855,15.276289,10.547291
18036,55.590766,37.672744,2.309207,0.954089,8.987833,-0.076336,-0.015267,-0.015267,-1.355052,15.279948,10.708369
18136,55.590766,37.672744,2.309207,0.960075,8.991425,-0.061069,-0.015267,-0.015267,-1.354271,15.283607,10.876408
18236,55.590766,37.672744,2.315193,0.973243,9.010579,-0.061069,-0.015267,-0.015267,-1.347289,15.286653,11.036504
18336,55.590766,37.672744,2.315193,0.957681,8.991425,-0.061069,-0.015267,-0.015267,-1.347456,15.290307,11.197410
18436,55.590766,37.672744,2.305616,0.967257,8.992622,-0.076336,-0.015267,-0.015267,-1.348266,15.287055,11.358086
18536,55.590766,37.672744,2.315193,0.956484,8.997410,-0.076336,-0.015267,-0.015267,-1.348422,15.290705,11.518864
18636,55.590766,37.672744,2.322376,0.958878,8.990228,-0.061069,-0.015267,-0.015267,-1.347591,15.295287,11.688774
18736,55.590766,37.672744,2.313996,0.962469,9.008184,-0.076336,-0.015267,-0.015267,-1.348409,15.292037,11.849269
18836,55.590766,37.672744,2.318784,0.961272,8.991425,-0.061069,-0.015267,-0.015267,-1.348542,15.295689,12.009863
18939,55.590766,37.672744,2.255338,0.956484,8.998607,-0.076336,-0.015267,-0.015267,-1.427583,15.280140,11.924056
19082,55.590766,37.672748,2.329558,0.952892,8.991425,-0.061069,-0.015267,-0.015267,-1.425460,15.292351,12.150658
19182,55.590766,37.672748,2.322376,0.942118,8.999805,-0.061069,-0.015267,-0.015267,-1.425583,15.296104,12.311100
19282,55.590766,37.672748,2.323573,0.944513,9.002199,-0.061069,-0.015267,-0.015267,-1.424717,15.300785,12.480776
19382,55.590766,37.672748,2.329558,0.956484,8.997410,-0.061069,-0.015267,-0.015267,-1.424087,15.311432,12.641263
19482,55.590766,37.672748,2.324770,0.962469,8.996213,-0.076336,-0.015267,-0.015267,-1.416036,15.315396,12.810005
19582,55.590766,37.672748,2.329558,0.946907,8.987833,-0.076336,-0.015267,-0.015267,-1.416104,15.319139,12.970164
19682,55.590766,37.672748,2.322376,0.956484,8.989030,-0.061069,-0.015267,-0.015267,-1.408030,15.323066,13.138805
19782,55.590766,37.672748,2.317587,0.944513,8.997410,-0.076336,-0.015267,-0.015267,-1.415992,15.320651,13.299454
19883,55.590766,37.672748,2.334347,0.942118,8.995017,-0.076336,-0.015267,-0.015267,-1.416019,15.325328,13.461894
19983,55.590766,37.672748,2.323573,0.944513,8.984242,-0.061069,-0.015267,-0.015267,-1.414292,15.335940,13.628833
20083,55.590766,37.672748,2.319981,0.940921,8.992622,-0.076336,-0.015267,-0.015267,-1.421426,15.341386,13.791986
20183,55.590766,37.672748,2.321178,0.944513,8.992622,-0.061069,-0.015267,-0.015267,-1.422213,15.339187,13.954071
20283,55.590766,37.672748,2.323573,0.944513,8.996213,-0.076336,-0.015267,-0.015267,-1.422210,15.342935,14.113646
20383,55.590766,37.672748,2.331953,0.951695,8.980651,-0.061069,-0.015267,-0.015267,-1.421201,15.347597,14.282691
20483,55.590766,37.672748,2.321178,0.950498,8.997410,-0.076336,-0.015267,-0.015267,-1.414850,15.344588,14.443772
20583,55.590766,37.672748,2.331953,0.949301,9.001002,-0.076336,-0.015267,-0.015267,-1.414824,15.348329,14.603069
20683,55.590766,37.672748,2.322376,0.946907,8.990228,-0.061069,-0.015267,-0.015267,-1.421894,15.353833,14.765834
20783,55.590766,37.672748,2.327164,0.952892,8.989030,-0.061069,-0.015267,-0.015267,-1.415547,15.350802,14.926719
20883,55.590766,37.672748,2.507926,0.913388,8.989030,-0.061069,-0.015267,0.045802,-1.433849,15.370172,15.046584
21144,55.590766,37.672748,2.324770,0.933739,9.002199,-0.076336,-0.015267,-0.015267,-1.486357,15.341090,15.284919
21244,55.590766,37.672748,2.328361,0.942118,9.008184,-0.061069,-0.015267,-0.015267,-1.486275,15.345859,15.446561
21344,55.590766,37.672748,2.325967,0.948104,8.986637,-0.061069,-0.015267,-0.015267,-1.479050,15.349755,15.607342
21444,55.590766,37.672748,2.325967,0.940921,9.003396,-0.061069,-0.015267,-0.015267,-1.477969,15.354485,15.775671
21544,55.590766,37.672748,2.325967,0.936133,8.987833,-0.061069,-0.015267,-0.015267,-1.477848,15.359242,15.937090
21644,55.590766,37.672748,2.331953,0.934936,9.003396,-0.061069,-0.015267,-0.015267,-1.469613,15.363064,16.104457
21744,55.590766,37.672748,2.322376,0.934936,9.006987,-0.061069,-0.015267,-0.015267,-1.477539,15.361853,16.266286
21844,55.590766,37.672748,2.329558,0.939724,8.996213,-0.061069,-0.015267,-0.015267,-1.469289,15.365648,16.433469
21944,55.590766,37.672748,2.323573,0.931344,8.990228,-0.061069,-0.015267,-0.015267,-1.476247,15.371330,16.595325
22044,55.590766,37.672748,2.334347,0.938527,9.003396,-0.061069,-0.015267,-0.015267,-1.476029,15.370120,16.766010
22144,55.590766,37.672748,2.329558,0.945710,8.973468,-0.061069,-0.015267,-0.015267,-1.475844,15.374874,16.926927
22244,55.590766,37.672748,2.335544,0.944513,8.996213,-0.076336,-0.015267,-0.015267,-1.468527,15.378665,17.086978
22344,55.590766,37.672748,2.324770,0.931344,8.998607,-0.061069,-0.015267,-0.015267,-1.474459,15.384337,17.255231
22444,55.590766,37.672748,2.329558,0.939724,8.995017,-0.061069,-0.015267,-0.015267,-1.475203,15.383167,17.418880
22544,55.590766,37.672748,2.328361,0.940921,8.996213,-0.061069,-0.015267,-0.015267,-1.475026,15.381013,17.585948
22644,55.590766,37.672748,2.323573,0.938527,9.004593,-0.061069,-0.015267,-0.015267,-1.475829,15.378905,17.746158
22744,55.590766,37.672748,2.339135,0.942118,9.080011,-0.076336,-0.015267,-0.015267,-1.475538,15.384596,17.909814
22844,55.590766,37.672748,2.310405,0.934936,9.012972,-0.076336,-0.015267,-0.015267,-1.535371,15.369537,17.860639
23144,55.590763,37.672748,0.925359,0.708684,7.753622,-0.183206,0.229008,0.045802,-5.369154,8.687401,15.117677
23244,55.590763,37.672748,1.361104,-0.216675,9.187749,-0.076336,-0.030534,0.106870,-5.855690,8.298357,14.793469
23344,55.590763,37.672748,1.092953,0.639252,9.455900,-0.076336,0.122137,0.091603,-6.078205,7.650318,13.618933
23444,55.590763,37.672748,1.003170,-0.166397,9.093178,-0.106870,0.076336,0.259542,-6.669362,6.608274,12.633462
23544,55.590763,37.672748,0.774524,0.241814,9.091981,0.015267,0.015267,0.198473,-6.728549,6.126123,10.458340
23644,55.590763,37.672748,1.051055,-0.158017,9.862915,-0.061069,0.061069,0.000000,-6.354308,5.903276,10.055608
23744,55.590763,37.672748,-0.107739,0.549469,10.210074,-0.015267,0.183206,0.320611,-6.393771,3.639438,8.061415
23844,55.590763,37.672748,-0.311246,1.219846,11.275493,0.015267,-0.458015,0.442748,-5.492193,4.160962,4.863428
23944,55.590763,37.672748,0.469264,1.587356,10.539277,0.076336,-0.152672,0.503817,-4.320205,6.973690,0.481732
24044,55.590763,37.672748,0.063446,1.541866,9.464280,-0.061069,0.122137,0.580153,-3.791484,5.640913,-4.735103
24144,55.590763,37.672748,0.591368,1.048660,8.197747,-0.076336,0.076336,0.977099,-4.191172,4.165195,-11.218053
24244,55.590763,37.672748,1.393425,0.330400,8.367735,-0.045802,-0.030534,0.778626,-4.667812,3.937924,-19.355037
24344,55.590763,37.672748,2.116474,0.417788,7.635109,0.076336,0.152672,1.007634,-4.918733,3.029944,-28.366537
24444,55.590763,37.672748,0.179565,0.572214,9.112332,-0.045802,0.290076,1.099237,-3.888247,0.117860,-37.959712
24544,55.590763,37.672748,0.699107,1.000776,8.865730,-0.198473,0.061069,1.175572,-3.952721,-1.158760,-48.656394
24644,55.590763,37.672748,1.404199,0.707487,8.777144,-0.045802,-0.305344,1.160305,-4.561060,-0.943106,-59.355472
24744,55.590763,37.672748,0.963666,0.945710,9.112332,0.015267,-0.045802,1.022901,-3.636027,-0.235693,-69.576980
24844,55.590763,37.672748,0.569820,0.532710,9.447521,0.061069,-0.198473,0.778626,-2.420277,0.873990,-78.091239
24944,55.590763,37.672748,0.339977,-0.782904,9.470265,0.045802,-0.274809,0.534351,-1.969434,2.624910,-84.523468
25210,55.590770,37.672756,2.161964,-0.897826,8.485052,0.045802,-0.167939,0.564885,-1.407237,7.735308,-98.807029
25310,55.590770,37.672756,2.643199,-0.243011,8.074445,0.152672,0.045802,0.488550,-1.339316,8.734973,-103.647048
25410,55.590770,37.672756,2.754529,0.300472,8.383297,0.259542,0.198473,0.442748,0.079633,7.972581,-107.996551
25510,55.590770,37.672756,2.209848,1.088165,9.877280,0.305344,0.213740,0.519084,2.767453,6.466319,-112.768341
25610,55.590770,37.672756,2.445677,1.339556,9.388862,0.290076,-0.152672,0.442748,5.419530,6.768622,-117.597518
25710,55.590770,37.672756,2.371457,1.234211,9.226057,0.259542,0.183206,0.427481,7.860837,6.840010,-121.933662
25810,55.590770,37.672756,1.576582,1.678335,9.120712,-0.045802,0.183206,0.412214,8.541644,6.199903,-126.524932
25910,55.590770,37.672756,1.837550,1.186327,7.304709,-0.198473,-0.030534,0.137405,6.834694,5.977778,-129.227355
26010,55.590770,37.672756,2.817975,0.586579,8.706515,-0.305344,0.167939,0.061069,4.527285,7.031752,-129.223693
26110,55.590770,37.672756,1.387440,1.126472,9.821016,-0.412214,-0.015267,-0.198473,1.738250,6.133044,-129.095520
26210,55.590770,37.672756,1.242591,-0.123301,10.917560,-0.549618,0.030534,-0.534351,-2.430867,6.502986,-125.403549
26310,55.590770,37.672756,0.894234,-0.427365,9.909602,-0.137405,0.229008,-0.809160,-4.520192,5.331717,-119.058891
26411,55.590770,37.672756,1.349133,0.110133,7.990648,-0.030534,-0.091603,-0.656488,-4.045974,5.579260,-112.074020
26511,55.590770,37.672756,2.080561,0.739808,7.449559,-0.122137,-0.412214,-0.549618,-3.538838,9.357086,-106.886825
26611,55.590770,37.672756,2.675520,0.938527,8.062475,0.015267,-0.076336,-0.244275,-2.830142,11.987882,-103.288024
26711,55.590770,37.672756,2.114080,1.158794,9.301474,0.091603,0.076336,0.015267,-0.843345,11.380170,-102.191284
26811,55.590770,37.672756,1.532289,1.796848,10.955867,0.122137,0.366412,0.335878,0.754729,8.961759,-103.873664
26911,55.590770,37.672756,-0.110133,2.834735,11.189302,0.000000,0.442748,0.503817,2.411483,4.327251,-108.276718
27127,55.590770,37.672756,0.622492,0.754173,7.299921,-0.030534,0.091603,0.335878,1.833412,1.098208,-117.670707
27227,55.590770,37.672756,0.063446,0.014365,10.065224,-0.198473,-0.259542,-0.015267,0.820805,2.704956,-119.331825
27327,55.590770,37.672756,-0.359130,-0.283713,11.046847,-0.198473,-0.030534,-0.412214,-0.796011,3.140751,-117.522575
27427,55.590770,37.672756,-0.021548,-0.228646,11.019313,-0.091603,0.183206,-0.656488,-1.739534,2.119547,-112.560737
27527,55.590770,37.672756,0.184354,0.215478,7.999028,-0.091603,0.015267,-0.656488,-2.147931,0.993687,-106.480659
27627,55.590770,37.672756,0.428562,0.927753,6.695385,-0.045802,-0.198473,-0.488550,-2.098770,1.974380,-101.018836
27727,55.590770,37.672756,0.876278,1.194707,8.370130,-0.122137,-0.320611,-0.229008,-2.286663,4.985619,-97.586349
27827,55.590770,37.672756,0.623690,1.558625,10.520123,0.061069,0.152672,0.198473,-1.715441,5.495983,-97.475471
27927,55.590770,37.672756,0.044293,2.385822,11.506534,0.030534,0.290076,0.595420,-0.129755,2.919816,-101.289955
28027,55.590770,37.672756,-0.329203,2.523488,9.892842,0.015267,0.305344,0.671756,1.174963,-0.086301,-107.813179
28127,55.590770,37.672756,-0.234632,1.071405,7.187394,-0.015267,0.137405,0.534351,1.981140,-2.230609,-113.108131
28227,55.590770,37.672756,-0.094571,0.647632,8.070855,-0.305344,-0.274809,0.320611,0.751445,-1.411543,-117.032432
28327,55.590770,37.672756,-0.489614,0.314838,10.293870,-0.458015,-0.229008,-0.030534,-2.637927,1.285240,-118.489814
28427,55.590770,37.672756,-0.652420,-0.379481,11.044453,-0.259542,0.106870,-0.381679,-5.639445,1.375618,-116.732475
28527,55.590770,37.672756,-0.969652,-0.845153,9.818622,0.122137,0.167939,-0.442748,-5.497098,-1.151648,-112.649421
28627,55.590770,37.672756,-1.525106,0.105345,8.892066,-0.045802,-0.137405,-0.519084,-4.858695,-1.673644,-108.219558
28727,55.590770,37.672756,-0.174777,0.853533,6.391322,-0.106870,-0.396947,-0.320611,-4.888730,0.355963,-104.665550
28827,55.590770,37.672756,1.541866,1.403002,8.414422,-0.045802,-0.305344,-0.061069,-5.049585,4.946662,-102.991676
29030,55.590793,37.672809,-0.355539,2.025495,10.128671,0.106870,0.213740,0.519084,-2.482868,1.298391,-107.571090
29130,55.590793,37.672809,-1.267730,2.832341,10.560824,0.061069,0.274809,0.396947,-0.351034,-0.953613,-111.705360
29230,55.590793,37.672809,-0.131681,0.646434,7.200562,-0.106870,0.091603,0.396947,0.457958,-3.212751,-115.278640
29330,55.590793,37.672809,0.076614,-0.193930,7.632715,-0.259542,-0.244275,0.396947,-0.889045,-2.308362,-119.320198
29430,55.590793,37.672809,-0.080206,-0.475249,10.244790,-0.229008,-0.167939,0.091603,-3.133595,0.016547,-122.073242
29530,55.590793,37.672809,-1.000776,-0.495600,10.831369,-0.122137,0.015267,-0.442748,-4.513314,-0.384624,-120.333953
29630,55.590793,37.672809,-0.814029,0.089783,10.876859,0.076336,0.076336,-0.595420,-4.185802,-0.686536,-115.374252
29730,55.590793,37.672809,-0.203507,0.142455,8.233660,0.000000,0.015267,-0.595420,-3.692738,-0.885227,-109.529205
29830,55.590793,37.672809,0.527921,0.902614,6.338649,-0.061069,-0.152672,-0.427481,-3.138631,-0.027989,-104.802131
29930,55.590793,37.672809,1.493982,0.954089,7.638700,-0.015267,-0.076336,-0.106870,-3.040851,1.958155,-102.243965
30030,55.590793,37.672809,0.500388,1.242591,10.880450,-0.061069,0.061069,0.320611,-2.666065,2.133164,-103.388023
30130,55.590793,37.672809,-0.250194,1.578976,11.872847,0.015267,0.091603,0.610687,-2.187394,1.156330,-107.707824
30230,55.590793,37.672809,-0.775721,1.951274,10.380062,-0.076336,0.061069,0.580153,-1.427335,-0.644233,-113.421066
30330,55.590793,37.672809,0.263362,0.934936,8.092402,-0.198473,0.198473,0.381679,-2.114503,-1.979198,-118.200088
30430,55.590793,37.672809,-0.292093,-0.289698,7.131130,-0.229008,-0.167939,0.305344,-3.780258,-2.266083,-121.758033
30530,55.590793,37.672809,-1.142034,-0.930147,8.372524,-0.198473,-0.351145,-0.106870,-5.675545,-0.054194,-123.107582
30630,55.590793,37.672809,-0.512359,-1.503559,10.395625,-0.030534,0.076336,-0.473282,-6.651223,0.778129,-120.279296
30730,55.590793,37.672809,-0.020351,-0.495600,11.359291,0.045802,0.213740,-0.488550,-6.675288,0.302540,-115.712371
30830,55.590793,37.672809,-1.176750,0.520739,10.426749,-0.198473,0.091603,-0.534351,-6.540164,-0.934034,-110.840507
30930,55.590793,37.672809,-0.215478,0.457293,6.259640,-0.167939,-0.229008,-0.366412,-7.716593,-0.405397,-106.369743
31098,55.590808,37.672836,1.297657,1.267730,8.344990,0.137405,-0.106870,0.045802,-6.195618,4.391786,-103.884437
31198,55.590808,37.672836,0.793678,1.952471,9.728839,0.091603,0.183206,0.320611,-4.120612,3.784313,-105.204246
31298,55.590808,37.672836,-0.682347,2.510320,11.135433,0.076336,0.290076,0.564885,-1.878274,0.567177,-109.410896
31398,55.590808,37.672836,-0.940921,1.948880,9.572019,-0.030534,0.351145,0.473282,-0.420150,-3.160713,-114.176712
31498,55.590808,37.672836,-0.299275,0.316035,7.078457,-0.259542,-0.183206,0.396947,-1.031601,-3.916258,-118.168716
31598,55.590808,37.672836,-0.250194,-0.438139,8.718486,-0.290076,-0.244275,0.167939,-3.728565,-1.435536,-121.379547
31698,55.590808,37.672836,-1.333570,-0.393846,10.700885,-0.091603,0.061069,-0.167939,-5.052816,-1.276865,-121.408996
31798,55.590808,37.672836,-1.653196,-0.310049,11.718420,0.000000,0.183206,-0.473282,-5.148246,-2.626514,-118.232673
31898,55.590808,37.672836,-1.230620,-0.852336,8.696938,0.152672,0.076336,-0.564885,-4.801251,-3.761056,-113.290298
31998,55.590808,37.672836,-0.507571,0.173580,6.536170,0.106870,-0.106870,-0.641221,-3.343888,-3.762665,-107.618232
32098,55.590808,37.672836,0.537498,1.161188,8.195353,-0.106870,-0.213740,-0.488550,-3.091636,-1.169797,-102.522529
32198,55.590808,37.672836,0.484826,1.088165,10.156204,-0.030534,0.167939,-0.106870,-3.198779,-0.437063,-100.307960
32299,55.590808,37.672836,-1.070208,1.798046,10.613496,0.000000,0.198473,0.351145,-1.968613,-2.791836,-101.411018
32399,55.590808,37.672836,-1.413776,1.805228,10.607511,-0.152672,0.045802,0.580153,-1.358745,-4.709509,-105.802734
32499,55.590808,37.672836,-0.762553,1.747767,8.663419,-0.244275,0.091603,0.641221,-1.855969,-5.672085,-111.876647
32599,55.590808,37.672836,-0.366313,0.928950,6.580463,-0.198473,-0.122137,0.519084,-2.623770,-5.663864,-117.278930
32699,55.590808,37.672836,-0.964863,0.871489,8.111556,-0.198473,-0.198473,0.213740,-3.341921,-4.640870,-121.187522
32799,55.590808,37.672836,-1.350330,-0.271742,10.880450,-0.137405,-0.015267,-0.244275,-4.820732,-3.265963,-121.167304
32899,55.590808,37.672836,-1.631648,-0.623690,11.729194,-0.106870,0.167939,-0.549618,-5.918370,-3.889211,-117.706626
32999,55.590824,37.672863,-1.420959,-0.533907,8.821436,0.030534,-0.152672,-0.641221,-6.108033,-4.511567,-111.338928
33116,55.590824,37.672863,-0.466869,-0.071826,7.779958,0.030534,0.030534,-0.625954,-5.795478,-2.987928,-104.921867
33216,55.590824,37.672863,0.203507,0.492008,6.944382,-0.030534,-0.183206,-0.351145,-5.474743,-1.884030,-100.312675
33316,55.590824,37.672863,0.770933,0.913388,9.285912,-0.122137,-0.152672,-0.106870,-5.406594,0.423275,-98.833511
33416,55.590824,37.672863,0.411803,1.435324,10.259155,-0.015267,0.091603,0.259542,-4.827314,0.606750,-99.664176
33516,55.590824,37.672863,-1.207875,1.696292,11.505336,0.015267,0.488550,0.503817,-3.382063,-2.984170,-103.600273
33616,55.590824,37.672863,-1.404199,1.671153,8.869320,0.061069,0.061069,0.671756,-1.679746,-5.712040,-108.617774
33716,55.590824,37.672863,-0.939724,1.240196,8.068460,-0.122137,0.076336,0.534351,-0.393467,-6.663137,-114.343986
33816,55.590824,37.672863,-1.095347,0.179565,7.518990,-0.244275,-0.229008,0.381679,-1.360233,-6.338244,-118.553268
33916,55.590824,37.672863,-1.177947,-0.646434,10.096349,-0.244275,-0.137405,-0.015267,-3.450928,-4.084464,-120.788368
34016,55.590824,37.672863,-2.043451,-0.590171,11.805809,-0.351145,0.045802,-0.488550,-5.737699,-4.550934,-118.420242
34116,55.590824,37.672863,-2.130840,-0.773327,10.277112,0.000000,0.091603,-0.595420,-7.382769,-5.899525,-113.180488
34216,55.590824,37.672863,-1.399411,-0.318429,7.862558,0.106870,-0.091603,-0.610687,-7.276859,-4.857454,-107.633407
34316,55.590824,37.672863,-0.354342,0.727837,6.710947,-0.015267,-0.305344,-0.503817,-5.972829,-2.882089,-102.847061
34416,55.590824,37.672863,1.297657,0.271742,8.639477,-0.152672,-0.167939,-0.244275,-6.145152,0.301689,-99.973579
34516,55.590824,37.672863,0.391452,0.554258,10.062830,0.061069,0.122137,0.106870,-5.679579,0.440253,-99.281417
34616,55.590824,37.672863,-1.600524,1.582567,11.423933,0.091603,0.198473,0.274809,-3.943307,-1.474650,-101.062194
34716,55.590824,37.672863,-1.492785,1.793257,9.003396,0.030534,0.000000,0.259542,-2.144724,-3.487099,-103.273986
34816,55.590824,37.672863,-0.609324,0.979228,8.407239,0.000000,0.244275,0.290076,-0.949302,-4.654862,-105.978355
34916,55.590824,37.672863,-0.585382,0.184354,7.766790,-0.122137,0.106870,0.229008,-1.058795,-6.705987,-108.160598
35055,55.590824,37.672863,-1.244985,-0.195127,10.642227,-0.244275,-0.274809,-0.076336,-3.062513,-3.752923,-110.544982
35155,55.590824,37.672863,-2.285265,-0.019154,11.688493,-0.305344,0.030534,-0.519084,-5.052253,-3.599251,-108.096817
35255,55.590824,37.672863,-2.185906,-0.871489,9.673772,-0.091603,0.030534,-0.854962,-7.367650,-4.406869,-101.398826
35355,55.590824,37.672863,-1.055843,-1.029507,8.365342,0.137405,0.015267,-0.931298,-7.391284,-3.671326,-93.430191
35456,55.590824,37.672863,-0.083797,-0.365116,7.073669,0.091603,-0.122137,-0.793893,-6.370418,-2.459013,-85.348541
35556,55.590824,37.672863,-0.010774,0.239420,8.152257,-0.061069,-0.259542,-0.488550,-5.889430,0.190165,-79.805885
35656,55.590824,37.672863,-0.505177,0.756568,9.725248,-0.015267,-0.106870,-0.152672,-5.180182,1.585179,-77.207740
35756,55.590824,37.672863,-0.538695,1.346738,11.517308,0.015267,0.183206,0.259542,-4.261426,1.092806,-77.765083
35856,55.590824,37.672863,-0.921768,2.100912,9.642648,-0.106870,0.015267,0.396947,-3.252671,-1.381233,-80.793884
35956,55.590824,37.672863,-0.481235,1.249773,9.121909,-0.091603,0.030534,0.503817,-3.488324,-1.081443,-85.014846
36056,55.590824,37.672863,-0.829591,0.785298,7.611167,0.000000,0.137405,0.442748,-2.651943,-2.800770,-89.595024
36156,55.590824,37.672863,-0.233435,0.252588,7.911640,-0.167939,-0.167939,0.305344,-3.027086,-2.780936,-93.156944
36256,55.590824,37.672863,-0.896629,0.488417,10.008960,-0.259542,-0.091603,-0.061069,-4.630554,-1.582660,-94.605773
36356,55.590824,37.672863,-1.461660,-0.160412,11.018116,-0.259542,0.045802,-0.305344,-6.391066,-1.824849,-93.148735
36456,55.590824,37.672863,-1.789666,-0.268151,10.182540,-0.015267,0.122137,-0.442748,-7.574854,-3.052304,-89.454795
36556,55.590824,37.672863,-1.249773,-0.355539,8.491037,0.045802,-0.061069,-0.534351,-7.290338,-2.912773,-84.523040
36656,55.590824,37.672863,-0.356736,-0.424971,7.123947,0.213740,-0.061069,-0.351145,-6.146096,-2.213747,-80.963500
36756,55.590824,37.672863,0.080206,1.085770,7.826645,0.091603,-0.366412,-0.167939,-3.526579,-0.030314,-78.892707
36856,55.590824,37.672863,0.913388,1.367089,9.273941,0.000000,-0.290076,0.000000,-2.276077,3.479820,-78.355926
36956,55.590824,37.672863,0.909797,1.634043,11.162966,-0.091603,0.167939,0.381679,-1.919376,4.006996,-80.009490
37126,55.590843,37.672901,-0.615310,1.985990,8.790312,0.061069,0.152672,0.488550,-0.148740,-1.391830,-87.532493
37226,55.590843,37.672901,-0.371101,1.265336,8.334217,-0.015267,0.229008,0.549618,0.950018,-3.334889,-92.374450
37326,55.590843,37.672901,-0.659603,1.074997,7.590816,-0.152672,0.030534,0.534351,0.976321,-4.809624,-97.503952
37426,55.590843,37.672901,-0.636858,0.560243,9.166202,-0.366412,-0.259542,0.229008,-0.742922,-3.360392,-101.413955
37526,55.590843,37.672901,-1.010353,-0.150835,11.088746,-0.351145,0.015267,-0.198473,-3.836070,-2.052534,-101.525703
37626,55.590843,37.672901,-1.957260,-0.478840,10.864888,-0.183206,0.442748,-0.595420,-6.509787,-4.586654,-97.511947
37726,55.590843,37.672901,-2.661155,-0.094571,8.862138,0.076336,0.030534,-0.687023,-6.603504,-7.104544,-91.301971
37826,55.590843,37.672901,-1.413776,-0.025139,7.586028,-0.061069,-0.305344,-0.671756,-6.627854,-5.401564,-85.197875
37926,55.590843,37.672901,-0.374693,0.281319,7.151481,0.000000,-0.290076,-0.641221,-6.737796,-2.004244,-79.741508
38026,55.590843,37.672901,0.754173,0.623690,8.570045,0.030534,-0.152672,-0.519084,-5.781052,0.968783,-74.590797
38126,55.590843,37.672901,0.608127,0.509965,10.497378,-0.076336,0.030534,-0.213740,-5.046057,1.542587,-71.149513
38226,55.590843,37.672901,0.345962,0.853533,11.530476,-0.015267,-0.076336,0.198473,-4.714422,2.136542,-71.344635
38326,55.590843,37.672901,0.204704,0.347159,9.619903,-0.030534,0.122137,0.274809,-4.681139,1.051304,-73.276947
38426,55.590843,37.672901,-0.159214,0.726640,8.690953,-0.030534,0.137405,0.320611,-4.324640,-0.322077,-76.115951
38526,55.590843,37.672901,-0.423774,0.903811,7.972692,0.030534,0.045802,0.290076,-3.413501,-1.392545,-79.040191
38626,55.590843,37.672901,-0.908600,0.944513,7.746439,-0.076336,-0.137405,0.198473,-2.597147,-1.594916,-81.594116
38726,55.590843,37.672901,-1.259350,0.515950,9.890448,-0.335878,-0.137405,-0.137405,-3.949567,-0.533944,-82.034461
38827,55.590843,37.672901,-1.833959,-0.436942,10.593146,-0.335878,0.106870,-0.595420,-6.965798,-0.929196,-78.562416
38927,55.590843,37.672901,-2.015918,-1.509544,10.248381,-0.015267,0.183206,-0.854962,-8.645297,-2.412770,-71.340164
39191,55.590843,37.672901,-0.914585,-0.050278,6.868965,0.091603,-0.167939,-0.885496,-5.944240,-2.248783,-48.964870
39291,55.590843,37.672901,0.089783,0.677559,8.631097,0.015267,-0.198473,-0.625954,-5.062878,0.602095,-42.109882
39391,55.590843,37.672901,0.391452,1.116895,10.602723,0.061069,0.244275,-0.167939,-3.633453,0.444046,-38.640998
39491,55.590843,37.672901,-0.571017,2.165555,12.155363,0.183206,0.442748,0.305344,-1.146924,-2.800593,-39.722164
39591,55.590843,37.672901,-1.987187,2.099715,9.606735,0.061069,-0.030534,0.381679,1.286534,-5.872202,-43.126857
39691,55.590843,37.672901,-1.608903,0.952892,8.401254,-0.137405,-0.458015,0.427481,1.680960,-3.640765,-46.953620
39791,55.590843,37.672901,-0.784101,0.697910,7.639898,-0.198473,-0.427481,0.351145,0.695609,0.459861,-50.544727
39891,55.590843,37.672901,-0.529119,0.618901,8.095993,-0.229008,-0.167939,0.183206,-0.996015,2.567957,-53.187778
39991,55.590843,37.672901,-1.031901,-0.009577,10.134656,-0.290076,0.061069,-0.229008,-2.896714,2.338391,-53.043891
40091,55.590843,37.672901,-1.656788,-0.757765,11.075577,-0.259542,0.061069,-0.564885,-5.047612,0.930501,-49.225963
40192,55.590843,37.672901,-1.738190,-1.215057,10.044874,0.061069,0.106870,-0.870229,-5.771414,-0.307977,-42.232376
40292,55.590843,37.672901,-0.768539,-0.347159,7.418434,0.122137,0.000000,-0.900763,-4.780840,-0.565871,-34.031250
40392,55.590843,37.672901,0.280122,0.687136,6.878541,0.061069,-0.152672,-0.687023,-2.982154,0.587584,-26.897584
40492,55.590843,37.672901,0.587777,1.675941,8.434773,-0.045802,-0.213740,-0.290076,-2.090438,2.651149,-22.455987
40592,55.590843,37.672901,0.811634,1.996764,10.158598,0.000000,0.000000,0.091603,-1.477256,4.106638,-21.431184
40692,55.590843,37.672901,0.293290,2.456451,11.353305,0.259542,0.458015,0.534351,0.953070,1.739303,-24.584732
40792,55.590843,37.672901,-1.417367,2.476802,10.423157,0.106870,0.274809,0.641221,3.897947,-2.412960,-30.048978
40892,55.590843,37.672901,-1.235408,1.034295,8.859744,-0.167939,-0.198473,0.534351,4.315412,-2.636423,-35.636440
40992,55.590843,37.672901,-0.551863,0.098162,7.896077,-0.351145,-0.412214,0.290076,1.664080,0.744462,-40.287761
41121,55.590835,37.672954,-0.930147,0.331597,9.269152,-0.366412,-0.320611,-0.091603,-2.018739,4.816929,-41.914192
41221,55.590835,37.672954,-2.054225,-0.934936,10.612299,-0.427481,-0.091603,-0.732824,-4.764122,5.242401,-38.551185
41321,55.590835,37.672954,-2.163161,-0.636858,11.279085,-0.259542,0.167939,-1.221374,-7.073676,3.857749,-28.672569
41421,55.590835,37.672954,-0.652420,-0.198719,9.297883,-0.167939,0.167939,-1.175572,-7.304685,2.802449,-17.549406
41521,55.590835,37.672954,0.413000,0.586579,6.057330,-0.244275,0.213740,-1.022901,-8.621170,2.467844,-7.192933
41621,55.590835,37.672954,0.367510,2.018312,7.734468,0.030534,0.152672,-0.595420,-8.193072,2.196691,0.240713
41721,55.590835,37.672954,0.392649,2.492364,9.155427,0.335878,0.045802,-0.198473,-4.906375,1.782624,3.817385
41821,55.590835,37.672954,-0.545878,2.345121,11.982980,0.320611,0.274809,0.274809,-0.255621,0.391509,3.001887
41921,55.590835,37.672954,-2.735375,2.062605,12.879609,0.290076,0.351145,0.534351,3.989690,-3.578926,-1.310380
42021,55.590835,37.672954,-1.945289,0.943315,8.414422,-0.122137,-0.335878,0.625954,5.258651,-4.056039,-7.597906
42121,55.590835,37.672954,-0.549469,0.457293,7.416040,-0.229008,-0.412214,0.503817,4.001375,-0.607361,-12.525996
42221,55.590835,37.672954,-0.122104,-0.202310,7.841011,-0.335878,-0.320611,0.290076,1.136503,2.714588,-16.423736
42321,55.590835,37.672954,-0.907402,-0.638055,10.253170,-0.610687,-0.320611,-0.152672,-3.735312,5.542499,-17.038009
42421,55.590835,37.672954,-0.877475,-1.035492,11.365276,-0.580153,-0.091603,-0.534351,-8.488271,6.911560,-13.515091
42521,55.590835,37.672954,-0.853533,-0.826000,9.306262,-0.061069,0.213740,-0.885496,-9.643225,5.152395,-5.699705
42621,55.590835,37.672954,0.173580,-0.070629,6.640318,0.030534,0.015267,-0.885496,-8.415934,5.149630,2.644304
42721,55.590835,37.672954,-28.646623,27.076026,-8.145074,-294.702301,474.961822,-444.961822,-30.814964,-3.326361,169.205215
42821,55.590835,37.672954,2.297236,0.477643,8.656237,0.000000,0.015267,-0.259542,-6.040561,8.104372,14.474286
42921,55.590835,37.672954,1.229423,0.751779,10.862494,0.122137,0.198473,0.152672,-4.418597,6.736559,14.675022
43145,55.590835,37.672954,-0.363919,1.119289,9.649830,-0.152672,0.137405,0.213740,-3.150714,1.284445,7.986664
43245,55.590835,37.672954,-0.748188,0.788889,6.888118,-0.274809,-0.229008,0.091603,-4.408544,1.414074,6.228566
43345,55.590835,37.672954,-0.761356,0.114922,7.657854,-0.259542,-0.335878,-0.015267,-6.753622,3.792267,6.061678
43445,55.590835,37.672954,-1.167173,-0.345962,10.662578,-0.274809,-0.137405,-0.580153,-8.595805,5.743999,8.887693
43545,55.590835,37.672954,-0.456095,-0.532710,10.690111,-0.091603,0.091603,-0.778626,-8.964199,5.789387,15.485109
43645,55.590835,37.672954,1.134852,-0.307655,9.033324,0.244275,0.259542,-0.534351,-6.773606,5.047961,21.456209
43745,55.590835,37.672954,1.939303,1.411382,6.734889,0.213740,0.351145,0.030534,-3.228280,2.259630,23.853969
43845,55.590835,37.672954,1.151611,2.276886,7.334637,-0.106870,-0.015267,0.335878,-1.862753,0.975007,22.023450
43945,55.590835,37.672954,-0.207098,1.462857,10.108320,-0.030534,-0.122137,0.793893,-1.783228,2.119725,16.679187
44045,55.590835,37.672954,-0.381875,2.078167,10.183737,0.000000,-0.061069,1.206107,-0.992986,1.675872,7.374184
44145,55.590835,37.672954,-0.604536,2.598906,11.841722,-0.122137,0.274809,1.267176,-0.409294,0.081473,-4.624462
44246,55.590835,37.672954,-0.713472,2.146402,9.135077,-0.259542,0.122137,1.007634,-0.406227,-2.059494,-15.424510
44346,55.590835,37.672954,-0.343568,0.403423,6.451177,-0.366412,-0.519084,0.793893,-2.706736,-0.624147,-23.371862
44446,55.590835,37.672954,-0.320823,0.149638,8.883686,-0.335878,-0.274809,0.458015,-5.607202,3.040181,-29.406772
44546,55.590835,37.672954,-1.071405,-0.517148,9.519347,-0.274809,0.259542,-0.091603,-8.250562,1.630601,-30.680446
44646,55.590835,37.672954,-0.482432,-1.655591,9.883265,-0.076336,0.366412,-0.335878,-10.118891,-0.816048,-28.238344
44746,55.590835,37.672954,-1.590947,-1.361104,9.428367,0.167939,0.396947,-0.442748,-9.484123,-4.419863,-24.802949
44846,55.590835,37.672954,-0.439336,-0.581791,7.043741,0.122137,-0.122137,-0.351145,-8.115883,-5.259252,-21.019012
45046,55.590805,37.672996,0.701501,0.569820,9.508572,0.106870,0.198473,0.030534,-5.554661,-2.633450,-17.392423
45146,55.590805,37.672996,-0.434548,1.300052,9.958683,0.061069,0.167939,0.335878,-3.819681,-4.589092,-19.031799
45246,55.590805,37.672996,-1.491588,1.934515,11.267113,-0.045802,0.396947,0.488550,-2.090126,-7.527491,-23.222404
45346,55.590805,37.672996,-1.136049,1.043872,8.227675,-0.091603,0.305344,0.580153,-1.300168,-11.330163,-28.538007
45446,55.590805,37.672996,-0.810437,0.069432,7.206547,-0.183206,0.000000,0.519084,-0.885552,-12.412002,-33.639057
45546,55.590805,37.672996,-1.659182,-0.186748,8.889672,-0.366412,0.045802,0.213740,-2.978279,-12.535988,-37.264904
45646,55.590805,37.672996,-2.971204,-0.144849,9.906010,-0.106870,0.000000,-0.122137,-4.841862,-12.725267,-37.904048
45746,55.590805,37.672996,-3.804387,-0.621295,11.407175,-0.030534,0.000000,-0.564885,-6.044050,-12.676280,-34.433242
45846,55.590805,37.672996,-3.156755,-0.696713,10.193314,0.061069,-0.106870,-0.641221,-6.475926,-12.379143,-28.864374
45946,55.590805,37.672996,-1.262941,-0.284910,7.131130,0.000000,-0.320611,-0.595420,-6.927167,-10.102943,-22.974050
46046,55.590805,37.672996,-0.044293,0.120907,6.867768,-0.045802,-0.320611,-0.458015,-7.392141,-5.779420,-18.141557
46146,55.590805,37.672996,-0.033519,0.515950,8.750807,0.076336,0.015267,-0.152672,-6.667535,-3.933478,-15.278460
46246,55.590805,37.672996,-0.826000,1.368286,10.279505,-0.030534,0.137405,0.213740,-5.235940,-5.137832,-15.805994
46346,55.590805,37.672996,-1.948880,1.950077,10.893618,-0.030534,0.412214,0.381679,-3.836999,-8.579021,-19.310144
46446,55.590805,37.672996,-1.920150,1.794454,8.722077,-0.106870,0.290076,0.366412,-2.777366,-12.057537,-23.298570
46546,55.590805,37.672996,-1.350330,0.602142,6.479907,-0.167939,-0.061069,0.335878,-2.529603,-13.245467,-26.742603
46646,55.590805,37.672996,-1.759738,-0.282516,8.285136,-0.198473,-0.213740,0.106870,-3.708151,-11.915409,-29.020021
46746,55.590805,37.672996,-2.800019,-0.175974,10.720039,-0.152672,-0.106870,-0.229008,-4.881414,-10.719370,-28.880195
46846,55.590805,37.672996,-3.465607,-0.567426,11.883621,-0.045802,0.061069,-0.580153,-6.285237,-10.706919,-25.225000
46946,55.590805,37.672996,-2.572570,-0.945710,8.848970,0.106870,-0.244275,-0.610687,-6.742787,-9.879941,-18.784654
47112,55.590797,37.673011,-0.044293,0.375890,6.687005,0.122137,-0.137405,-0.519084,-5.318039,-6.273316,-9.608814
47212,55.590797,37.673011,0.155623,1.471237,8.784326,-0.106870,-0.198473,-0.152672,-4.486651,-4.209016,-6.634088
47312,55.590797,37.673011,-0.470461,1.450886,10.438720,-0.167939,-0.030534,0.274809,-4.885756,-2.887370,-7.544348
47412,55.590797,37.673011,-1.666364,1.787272,11.857284,-0.061069,0.427481,0.519084,-4.528861,-5.053324,-11.935498
47512,55.590797,37.673011,-2.176329,2.166753,8.573637,0.000000,0.213740,0.549618,-2.682437,-9.318887,-17.077856
47612,55.590797,37.673011,-1.252167,0.495600,6.767211,-0.167939,-0.076336,0.396947,-2.103042,-10.275272,-21.569742
47712,55.590797,37.673011,-1.046266,-0.559046,7.641095,-0.213740,-0.045802,0.244275,-3.449054,-9.698703,-24.905523
47812,55.590797,37.673011,-2.651578,-0.742202,9.794679,-0.152672,-0.106870,-0.045802,-5.011829,-9.743392,-25.776704
47912,55.590797,37.673011,-3.251326,-0.433350,11.358094,-0.244275,-0.229008,-0.458015,-6.776411,-8.418729,-23.619659
48012,55.590797,37.673011,-2.765303,-0.076614,10.074801,0.213740,0.061069,-0.687023,-6.728106,-8.522452,-18.105941
48112,55.590797,37.673011,-1.161188,0.147243,7.351396,0.061069,-0.137405,-0.656488,-5.859900,-7.535432,-11.918281
48212,55.590797,37.673011,-0.089783,0.718261,6.774394,-0.015267,-0.076336,-0.503817,-5.767315,-5.687139,-6.635795
48312,55.590797,37.673011,0.119710,1.175553,8.984242,0.030534,-0.106870,-0.137405,-4.922207,-4.457194,-3.678021
48412,55.590797,37.673011,-0.933739,1.478420,10.890027,0.000000,-0.015267,0.244275,-3.681097,-3.937022,-4.419886
48512,55.590797,37.673011,-1.729811,1.881842,11.552023,0.045802,0.244275,0.488550,-2.256103,-5.014155,-8.312559
48612,55.590797,37.673011,-1.728614,2.218228,9.097967,-0.137405,0.061069,0.473282,-0.907684,-7.186804,-12.987492
48712,55.590797,37.673011,-0.799663,0.630872,6.490681,-0.244275,-0.091603,0.396947,-1.648514,-7.178459,-17.166093
48812,55.590797,37.673011,-0.915782,-0.231040,7.667431,-0.274809,-0.137405,0.167939,-3.519267,-6.408121,-19.927143
49112,55.590797,37.673015,-2.070984,-1.338359,9.227253,0.198473,0.076336,-0.595420,-7.740847,-7.421857,-11.609848
49212,55.590797,37.673015,-1.088165,-0.300472,7.624335,0.213740,0.045802,-0.595420,-6.160432,-7.587239,-5.958930
49312,55.590797,37.673015,0.238223,0.666785,6.865374,0.091603,-0.213740,-0.381679,-4.680893,-5.922497,-1.281780
49412,55.590797,37.673015,0.088585,1.584961,9.302671,0.122137,-0.167939,-0.045802,-3.001741,-3.376761,0.751917
49512,55.590797,37.673015,-0.963666,2.425326,10.918757,0.000000,0.015267,0.351145,-0.755723,-3.243875,-0.785337
49612,55.590797,37.673015,-2.114080,2.375048,10.963050,-0.122137,0.305344,0.488550,-0.031951,-5.345490,-5.193454
49712,55.590797,37.673015,-1.623269,2.009932,8.398860,-0.213740,0.198473,0.534351,0.178700,-7.967792,-10.294370
49812,55.590797,37.673015,-0.672771,0.702698,6.700173,-0.290076,0.076336,0.427481,-0.977459,-9.324499,-14.992142
49912,55.590797,37.673015,-1.084573,0.378284,8.325837,-0.335878,-0.106870,0.259542,-2.967664,-9.254313,-18.787872
50012,55.590797,37.673015,-2.881422,-0.128090,10.939108,-0.213740,-0.030534,-0.122137,-4.941587,-8.846817,-19.941959
50112,55.590797,37.673015,-3.339911,-0.671574,11.610682,-0.030534,0.061069,-0.442748,-6.498614,-8.834795,-17.296518
50212,55.590797,37.673015,-2.381034,-1.003170,8.876503,0.091603,-0.015267,-0.610687,-6.732018,-9.764944,-12.062121
50312,55.590797,37.673015,-1.237802,0.069432,6.658275,0.061069,-0.335878,-0.564885,-6.047977,-7.521387,-6.868414
50412,55.590797,37.673015,0.053870,0.159214,7.340622,0.045802,-0.198473,-0.458015,-5.621850,-4.109843,-1.788714
50512,55.590797,37.673015,-0.260968,0.600945,10.104729,-0.015267,0.030534,0.000000,-4.898055,-3.105993,0.454203
50612,55.590797,37.673015,-0.758962,1.816002,10.637438,-0.152672,-0.091603,0.396947,-4.306566,-3.563032,-1.561176
50712,55.590797,37.673015,-0.617704,1.856703,10.216059,-0.122137,0.137405,0.625954,-4.059238,-4.093752,-6.973533
50812,55.590797,37.673015,-1.088165,1.753753,8.311471,-0.137405,0.244275,0.519084,-3.534560,-6.596623,-12.688282
50912,55.590797,37.673015,-0.845153,0.392649,6.653487,-0.183206,-0.106870,0.427481,-3.795593,-7.751218,-17.022583
51117,55.590797,37.673015,-2.212242,-0.470461,11.040862,-0.122137,0.076336,-0.229008,-5.941681,-5.878061,-20.408668
51217,55.590797,37.673015,-2.718616,-0.834379,11.586740,-0.030534,0.229008,-0.580153,-7.115658,-7.107136,-16.957176
51317,55.590797,37.673015,-2.098518,-0.598550,8.695741,0.137405,0.015267,-0.610687,-6.793425,-8.459393,-11.471206
51417,55.590797,37.673015,-0.335188,0.541090,6.995857,-0.167939,-0.167939,-0.580153,-7.274345,-6.758641,-6.020452
51517,55.590797,37.673015,0.445322,0.657208,8.122330,-0.061069,-0.076336,-0.381679,-7.953907,-4.669544,-1.628629
51617,55.590797,37.673015,0.240617,0.793678,9.727642,0.000000,-0.152672,0.122137,-7.565770,-2.853596,-0.487967
51717,55.590797,37.673015,-0.063446,1.521515,10.572795,0.045802,-0.015267,0.625954,-5.876301,-2.342352,-3.942198
51817,55.590797,37.673015,-1.370680,2.059013,10.195709,-0.152672,0.229008,0.671756,-4.791000,-4.848639,-10.414986
51917,55.590797,37.673015,-1.514333,1.247379,7.947553,0.000000,0.137405,0.549618,-3.638886,-7.393705,-16.414722
52017,55.590797,37.673015,-0.845153,0.020351,6.855796,-0.152672,-0.137405,0.473282,-3.443551,-7.518490,-21.217309
52117,55.590797,37.673015,-1.638831,-0.216675,9.257182,-0.320611,-0.122137,0.122137,-4.844181,-6.528383,-24.386560
52217,55.590797,37.673015,-2.549825,-1.394622,10.390836,-0.412214,0.000000,-0.305344,-8.714687,-6.383226,-23.667922
52317,55.590797,37.673015,-2.589329,-1.744176,10.935517,0.106870,0.335878,-0.595420,-10.690786,-7.925485,-19.680656
52417,55.590797,37.673015,-1.486799,-0.544681,8.519767,0.152672,0.061069,-0.625954,-9.559353,-9.084871,-14.168300
52517,55.590797,37.673015,0.017957,0.002394,6.234501,0.167939,-0.076336,-0.534351,-8.569255,-7.737465,-8.541759
52617,55.590797,37.673015,0.073023,0.806846,8.222887,0.167939,-0.061069,-0.366412,-6.661421,-6.403302,-4.129677
52717,55.590797,37.673015,-0.990002,1.098939,10.600329,0.137405,0.000000,0.152672,-4.397336,-5.879150,-3.253116
52817,55.590797,37.673015,-1.066617,2.085350,10.911575,-0.030534,-0.091603,0.717557,-2.394916,-5.338408,-7.098434
52917,55.590797,37.673015,-1.879448,2.885013,11.149798,-0.320611,0.259542,0.671756,-1.452220,-7.097709,-14.004531
53178,55.590797,37.673015,-1.988385,-0.688333,7.787141,-0.213740,-0.229008,0.167939,-4.818993,-7.675296,-26.509078
53278,55.590797,37.673015,-2.932897,-0.629675,10.029312,-0.045802,0.061069,-0.366412,-6.265069,-7.630228,-25.783315
53378,55.590797,37.673015,-2.208651,-0.666785,11.900380,0.122137,0.290076,-0.732824,-6.419627,-8.691036,-20.421571
53478,55.590797,37.673015,-2.193089,-0.508768,9.971851,0.213740,0.137405,-0.763359,-5.647428,-10.961553,-13.246070
53578,55.590797,37.673015,-0.781707,0.335188,7.243657,-0.030534,-0.305344,-0.595420,-5.445653,-9.029646,-7.154892
53678,55.590797,37.673015,0.338780,0.705092,6.947973,0.000000,-0.183206,-0.396947,-5.566119,-5.822839,-2.730951
53778,55.590797,37.673015,-0.360327,1.404199,9.570822,0.061069,0.045802,-0.030534,-4.339274,-4.649704,-0.743933
53878,55.590797,37.673015,-1.479617,2.572570,10.475830,-0.030534,0.091603,0.503817,-2.426849,-5.923012,-2.918985
53978,55.590797,37.673015,-2.157176,3.283648,10.539277,0.091603,0.274809,0.717557,0.458565,-8.552664,-8.969512
54078,55.590797,37.673015,-1.880645,2.354697,8.000226,-0.076336,0.198473,0.687023,2.728700,-11.040811,-15.503346
54178,55.590797,37.673015,-0.942118,0.642843,6.453571,-0.290076,-0.167939,0.580153,2.605499,-10.608379,-21.693462
54278,55.590797,37.673015,-1.420959,0.588974,8.340202,-0.305344,-0.229008,0.290076,0.572394,-8.459898,-26.053991
54378,55.590797,37.673015,-3.154361,0.283713,11.553221,-0.213740,0.000000,-0.167939,-1.223859,-7.950750,-27.261007
54478,55.590797,37.673015,-3.082535,-0.870292,11.243171,-0.091603,0.122137,-0.519084,-3.360178,-9.559450,-23.998783
54578,55.590797,37.673015,-1.709460,-0.985214,8.294713,0.030534,-0.137405,-0.534351,-4.938313,-8.828495,-19.114618
54678,55.590797,37.673015,-0.641646,0.237026,5.665878,0.167939,-0.167939,-0.641221,-4.452709,-7.508791,-13.352239
54778,55.590797,37.673015,0.059855,1.185130,8.188170,0.061069,-0.366412,-0.335878,-2.900401,-3.908640,-8.778797
54878,55.590797,37.673015,0.266953,1.574188,10.321404,-0.137405,-0.122137,0.106870,-2.428081,-1.444288,-7.650776
54978,55.590797,37.673015,-0.240617,1.936909,11.026496,-0.167939,0.076336,0.641221,-3.034388,-1.208808,-11.659914
55117,55.590717,37.673065,-1.499967,2.718616,9.556456,-0.045802,0.396947,0.580153,-1.741163,-5.925107,-19.549364
55217,55.590717,37.673065,-0.843956,0.961272,6.536170,-0.152672,0.061069,0.442748,-0.892853,-8.528330,-24.368944
55317,55.590717,37.673065,-0.821211,0.035913,7.746439,-0.213740,-0.045802,0.290076,-2.032815,-8.211976,-28.242652
55417,55.590717,37.673065,-2.244564,0.391452,10.455479,-0.229008,-0.030534,-0.091603,-3.361073,-7.958735,-29.595436
55517,55.590717,37.673065,-3.155558,0.064643,12.168531,-0.061069,0.229008,-0.488550,-4.929137,-9.065732,-27.003469
55617,55.590717,37.673065,-2.894590,-0.804452,9.713276,0.183206,-0.061069,-0.564885,-4.807402,-10.726020,-21.773143
55717,55.590717,37.673065,-1.217452,0.192733,6.936002,0.061069,-0.213740,-0.702290,-4.321607,-8.911553,-15.707852
55817,55.590717,37.673065,0.304064,0.384269,6.511032,0.045802,-0.183206,-0.503817,-4.016148,-6.058535,-10.090318
55917,55.590717,37.673065,0.226252,0.656011,9.015367,0.015267,-0.061069,-0.122137,-3.583206,-4.490737,-6.898857
56017,55.590717,37.673065,-0.093374,1.880645,10.358514,-0.030534,-0.061069,0.381679,-2.360818,-3.821582,-8.256278
56117,55.590717,37.673065,-1.625663,2.861071,11.801021,-0.061069,0.366412,0.641221,-0.980497,-5.705887,-13.817028
56217,55.590717,37.673065,-1.687912,2.592921,9.151837,-0.213740,0.122137,0.702290,-0.245547,-7.858804,-20.475271
56317,55.590717,37.673065,-1.151611,1.053449,6.339846,-0.259542,0.106870,0.488550,-0.631936,-9.482506,-26.455188
56417,55.590717,37.673065,-1.369483,-0.155623,7.167043,-0.229008,-0.091603,0.351145,-2.218531,-9.439655,-30.959699
56517,55.590717,37.673065,-2.908955,-0.367510,10.864888,-0.183206,-0.015267,-0.152672,-3.612428,-9.021163,-32.280628
56617,55.590717,37.673065,-3.323152,-0.940921,12.014104,-0.076336,0.213740,-0.595420,-5.953495,-9.989067,-28.757078
56717,55.590717,37.673065,-2.943671,-0.739808,9.422381,0.137405,-0.015267,-0.687023,-6.238858,-11.727905,-22.671586
56817,55.590717,37.673065,-1.338359,0.411803,6.829460,0.091603,-0.213740,-0.671756,-5.804788,-9.769673,-16.574270
56918,55.590717,37.673065,0.338780,0.787692,6.183026,0.076336,-0.198473,-0.442748,-5.196135,-6.976655,-10.986418
57174,55.590717,37.673065,-1.254562,2.378639,11.797430,0.045802,0.244275,0.687023,-1.534618,-6.210659,-13.209907
57274,55.590717,37.673065,-2.087744,3.396175,10.375273,-0.290076,0.137405,0.763359,0.325588,-8.652109,-20.272518
57374,55.590717,37.673065,-1.235408,1.424550,6.381745,-0.396947,-0.015267,0.671756,-1.005969,-9.537625,-27.427944
57474,55.590717,37.673065,-0.797269,0.541090,6.714539,-0.412214,-0.122137,0.580153,-3.299890,-8.896395,-33.670715
57574,55.590717,37.673065,-1.677138,0.397438,9.101558,-0.335878,-0.152672,0.290076,-5.444499,-7.994622,-37.890800
57674,55.590717,37.673065,-2.418144,0.114922,11.847707,-0.259542,0.152672,-0.076336,-7.255783,-8.425726,-39.076702
57774,55.590717,37.673065,-2.327164,-0.457293,10.254366,0.137405,0.183206,0.091603,-6.663684,-11.586650,-39.024906
57874,55.590717,37.673065,-1.176750,0.487220,8.593988,-0.198473,-0.061069,0.259542,-5.577442,-11.646452,-40.937545
57974,55.590717,37.673065,-0.241814,0.034716,6.321889,-0.015267,-0.045802,0.595420,-5.706739,-11.239949,-44.713554
58074,55.590717,37.673065,-1.024718,0.438139,8.175003,-0.015267,-0.137405,0.854962,-3.851131,-10.789882,-51.388835
58174,55.590717,37.673065,-1.926135,0.386664,10.741586,-0.076336,0.076336,0.900763,-2.225978,-10.987689,-59.662258
58274,55.590717,37.673065,-2.109292,0.712275,11.881226,-0.106870,0.244275,0.778626,-1.110404,-11.923783,-67.668876
58374,55.590717,37.673065,-1.976413,1.030704,9.447521,-0.167939,0.198473,0.595420,-0.157803,-14.485887,-74.151260
58474,55.590717,37.673065,-1.877054,0.509965,6.819883,-0.198473,-0.030534,0.122137,-0.897879,-15.576099,-77.643196
58574,55.590717,37.673065,-1.607706,-0.445322,6.774394,-0.030534,-0.274809,-0.244275,-2.442917,-13.728592,-76.875137
58674,55.590717,37.673065,-2.601300,-0.232238,9.386468,-0.045802,-0.167939,-0.885496,-3.625499,-11.727861,-71.706817
58774,55.590717,37.673065,-2.686294,-0.282516,11.167755,-0.137405,-0.030534,-1.343511,-6.138080,-10.436894,-61.286224
58874,55.590717,37.673065,-2.997540,-0.500388,10.696097,0.076336,0.183206,-1.587786,-8.989022,-10.140150,-47.369106
59174,55.590663,37.673107,0.657208,0.804452,8.157046,0.122137,-0.167939,-0.564885,-5.267524,-1.168979,-14.785715
59274,55.590663,37.673107,-0.371101,1.278504,10.623073,0.106870,0.091603,0.106870,-3.096647,-0.746130,-13.234315
59374,55.590663,37.673107,-0.500388,1.243788,11.669340,0.030534,0.396947,0.671756,-1.694666,-2.862032,-17.399358
59474,55.590663,37.673107,-2.182315,2.791639,10.127473,-0.213740,0.412214,0.641221,-0.714344,-7.595874,-24.012695
59574,55.590663,37.673107,-1.423353,0.891840,6.096835,-0.335878,-0.213740,0.412214,-1.976770,-9.044853,-28.936132
59674,55.590663,37.673107,-0.857124,-0.118513,7.283162,-0.229008,-0.305344,0.183206,-3.923863,-6.486285,-31.862312
59774,55.590663,37.673107,-2.647987,0.208296,10.947487,-0.198473,-0.091603,-0.167939,-5.021484,-4.987303,-32.431549
59874,55.590663,37.673107,-2.706645,-0.675165,11.535264,-0.290076,-0.061069,-0.595420,-7.264136,-5.196427,-28.836671
59974,55.590663,37.673107,-1.867477,-1.150414,9.973048,0.183206,0.183206,-0.641221,-7.812559,-5.934651,-23.058959
60075,55.590663,37.673107,-1.051055,-0.132878,7.167043,0.106870,0.015267,-0.595420,-6.628876,-6.748518,-17.226964
60175,55.590663,37.673107,0.260968,0.609324,6.964733,-0.015267,-0.167939,-0.381679,-6.458625,-4.656707,-12.756055
60275,55.590663,37.673107,0.630872,1.255759,9.443929,-0.061069,-0.045802,0.106870,-6.056999,-2.630747,-11.460606
60375,55.590663,37.673107,-0.840365,1.681927,10.181344,0.015267,0.030534,0.488550,-4.778521,-3.521073,-14.558428
60475,55.590663,37.673107,-2.406173,1.453280,12.243947,0.106870,0.213740,0.610687,-2.504627,-4.968660,-20.503210
60575,55.590663,37.673107,-2.331953,1.400608,9.024944,-0.076336,0.137405,0.473282,-0.936770,-7.736893,-25.666774
60675,55.590663,37.673107,-1.092953,0.368707,6.290765,-0.259542,-0.106870,0.351145,-1.596914,-8.050116,-29.686603
60775,55.590663,37.673107,-1.393425,-0.634463,8.202535,-0.320611,-0.183206,0.061069,-4.302194,-6.706249,-31.702262
60875,55.590663,37.673107,-3.288436,-0.848744,11.060015,-0.274809,0.106870,-0.442748,-7.496719,-6.968286,-30.037849
60975,55.590663,37.673107,-2.935291,-1.265336,10.582372,0.106870,0.167939,-0.748092,-9.153087,-8.430095,-23.749958
61145,55.590637,37.673126,-0.824802,0.533907,7.857770,-0.015267,-0.030534,-0.625954,-6.362729,-7.423475,-13.527527
61245,55.590637,37.673126,0.271742,0.160412,6.080075,-0.076336,-0.137405,-0.381679,-7.183928,-6.041469,-9.361505
61345,55.590637,37.673126,0.281319,0.215478,9.197326,0.091603,-0.015267,0.061069,-6.555950,-3.847020,-7.854694
61445,55.590637,37.673126,-0.927753,0.695516,11.079169,0.106870,0.137405,0.458015,-4.595205,-5.173701,-10.068847
61545,55.590637,37.673126,2.115277,8.531738,-13.056779,335.633575,299.022888,-383.358764,-56.040645,-0.882867,-166.868133
61645,55.590637,37.673126,-1.516727,0.998382,8.186973,-0.183206,-0.198473,0.381679,-4.324090,-6.955621,-20.681230
61745,55.590637,37.673126,-0.289698,0.347159,6.306327,-0.274809,-0.335878,0.259542,-5.122622,-5.030378,-23.381315
61845,55.590637,37.673126,-0.985214,0.599748,8.112753,-0.122137,-0.213740,-0.015267,-6.880503,-2.220722,-24.819150
61945,55.590637,37.673126,-2.051831,-0.615310,10.787076,-0.167939,-0.167939,-0.229008,-7.668408,-1.152424,-23.534692
62045,55.590637,37.673126,-1.042675,-0.916979,11.951855,-0.122137,0.167939,-0.534351,-9.117150,-0.508254,-19.772691
62145,55.590637,37.673126,-0.641646,-1.423353,8.634689,0.183206,0.351145,-0.549618,-8.735347,-2.938905,-14.702771
62245,55.590637,37.673126,-0.154426,-0.429759,5.948394,0.030534,-0.122137,-0.519084,-7.901639,-3.385408,-9.755019
62345,55.590637,37.673126,0.934936,0.232238,8.344990,0.137405,-0.122137,-0.244275,-6.578265,-1.091518,-6.253161
62445,55.590637,37.673126,0.073023,0.853533,10.480618,0.045802,0.076336,0.183206,-4.887520,-0.719253,-6.046097
62545,55.590637,37.673126,-0.265756,1.306037,10.664972,0.076336,0.244275,0.580153,-3.352387,-2.291821,-9.781538
62645,55.590637,37.673126,-2.015918,2.225410,9.715671,0.030534,0.290076,0.473282,-1.047630,-6.479743,-14.544819
62745,55.590637,37.673126,-1.320402,1.431733,7.773973,-0.244275,0.045802,0.320611,-0.755352,-8.529965,-18.100667
62845,55.590637,37.673126,-0.374693,0.191536,7.041347,-0.274809,-0.183206,0.213740,-2.697200,-7.399487,-20.857749
62945,55.590637,37.673126,-1.411382,0.104148,9.129092,-0.076336,-0.091603,-0.015267,-3.660526,-6.000762,-22.171850
63209,55.590637,37.673126,-2.252944,-0.343568,9.757570,-0.015267,-0.106870,-0.580153,-5.890217,-7.675501,-12.599024
63309,55.590637,37.673126,-0.187945,-0.035913,6.350620,-0.030534,-0.167939,-0.458015,-6.288562,-6.001516,-7.644031
63409,55.590637,37.673126,0.701501,0.676362,7.133524,-0.015267,-0.183206,-0.198473,-6.119871,-3.303738,-4.565945
63509,55.590637,37.673126,-0.101754,1.112107,9.552865,-0.015267,-0.061069,0.106870,-5.346810,-2.143580,-4.077372
63609,55.590637,37.673126,-0.311246,1.185130,10.468647,-0.015267,0.045802,0.473282,-4.357268,-2.518121,-6.651546
63709,55.590637,37.673126,-1.209072,1.781286,10.842143,-0.030534,0.396947,0.641221,-2.849913,-5.657096,-12.138000
63809,55.590637,37.673126,-1.507150,1.820790,7.999028,-0.198473,0.213740,0.595420,-1.843911,-9.133123,-18.238775
63909,55.590637,37.673126,-0.964863,0.638055,6.727707,-0.351145,-0.137405,0.488550,-2.943327,-9.525591,-23.675054
64009,55.590637,37.673126,-1.748964,0.211887,8.875307,-0.290076,-0.198473,0.244275,-5.098879,-8.105244,-27.488040
64109,55.590637,37.673126,-3.163938,-0.270545,11.164163,-0.167939,0.015267,-0.244275,-6.630863,-8.034513,-27.863231
64209,55.590637,37.673126,-2.980781,-1.333570,10.930728,0.122137,0.244275,-0.549618,-7.287052,-9.759103,-24.010522
64309,55.590637,37.673126,-1.971625,-0.793678,8.084022,0.229008,0.000000,-0.580153,-6.093267,-10.682260,-18.764904
64409,55.590637,37.673126,-0.245406,0.052672,6.016629,0.076336,-0.213740,-0.488550,-5.564657,-9.007152,-13.429325
64509,55.590637,37.673126,0.027533,0.685939,9.030929,-0.076336,-0.122137,-0.213740,-5.316315,-6.443520,-10.075456
64609,55.590637,37.673126,-1.061828,1.193510,10.805033,-0.137405,-0.061069,0.198473,-5.244236,-5.717882,-10.229309
64709,55.590637,37.673126,-2.120066,1.435324,12.168531,0.030534,0.335878,0.534351,-4.286672,-7.128345,-14.202664
64809,55.590637,37.673126,-2.000355,2.012326,9.093178,-0.198473,0.091603,0.580153,-2.772042,-9.962341,-19.763254
64909,55.590637,37.673126,-1.047463,0.556652,6.539762,-0.213740,0.015267,0.473282,-3.104971,-10.644438,-24.979343
65210,55.590583,37.673149,-2.910152,-0.663194,10.955867,-0.198473,0.030534,-0.503817,-8.270117,-8.992004,-28.041593
65310,55.590583,37.673149,-2.470816,-1.950077,9.582793,0.122137,0.137405,-0.610687,-9.590795,-9.926309,-22.753379
65410,55.590583,37.673149,-1.640028,-0.381875,7.987057,0.076336,0.015267,-0.595420,-8.782169,-9.957912,-17.384963
65510,55.590583,37.673149,0.013168,-0.143652,6.294356,0.015267,-0.122137,-0.442748,-8.969357,-8.165650,-12.379944
65610,55.590583,37.673149,-0.430956,0.393846,8.974665,-0.045802,-0.030534,-0.076336,-8.452359,-6.795487,-10.013459
65710,55.590583,37.673149,-1.377863,0.992397,10.182540,0.076336,0.000000,0.381679,-7.046812,-7.266677,-11.679829
65810,55.590583,37.673149,-1.677138,1.367089,12.014104,0.076336,0.229008,0.580153,-4.298729,-8.400798,-16.735271
65910,55.590583,37.673149,-1.851915,2.009932,9.718065,-0.213740,0.183206,0.412214,-2.819351,-10.986330,-21.555551
66010,55.590583,37.673149,-1.738190,0.797269,7.116765,-0.305344,-0.030534,0.198473,-3.842610,-12.042172,-24.780010
66110,55.590583,37.673149,-1.810017,0.454898,7.748834,-0.259542,-0.244275,0.015267,-5.519911,-10.943436,-26.216806
66210,55.590583,37.673149,-3.090914,0.251391,10.138248,-0.213740,-0.106870,-0.244275,-6.902441,-9.692005,-25.669837
66310,55.590583,37.673149,-2.794033,-0.635661,10.560824,-0.152672,0.030534,-0.412214,-8.872430,-9.285389,-22.711965
66410,55.590583,37.673149,-2.219425,-1.241394,9.118318,0.091603,0.137405,-0.396947,-9.335329,-9.903150,-19.064582
66510,55.590583,37.673149,-0.712275,-0.632069,6.828263,0.106870,0.061069,-0.335878,-8.451444,-10.723301,-15.738793
66610,55.590583,37.673149,-0.207098,0.014365,7.692570,-0.061069,-0.122137,-0.152672,-8.247989,-9.334155,-13.716725
66710,55.590583,37.673149,-0.928950,0.126893,9.852141,-0.030534,-0.015267,0.076336,-8.154957,-8.137334,-13.345456
66810,55.590583,37.673149,-1.786075,0.705092,10.892421,0.015267,0.076336,0.366412,-6.860624,-8.912434,-15.485661
66910,55.590583,37.673149,-2.985569,1.146823,10.316616,-0.061069,0.198473,0.412214,-5.199452,-11.785817,-19.493385
67010,55.590557,37.673160,-2.133234,1.041478,7.814674,-0.244275,-0.091603,0.290076,-4.693832,-13.026348,-23.670469
67128,55.590557,37.673160,-0.900220,-0.415394,6.771999,-0.274809,-0.259542,0.167939,-6.906337,-10.953089,-26.166879
67228,55.590557,37.673160,-1.594538,-0.205901,9.466674,-0.244275,-0.030534,-0.030534,-8.501882,-9.371416,-27.111967
67328,55.590557,37.673160,-3.149572,-0.578200,10.715250,-0.213740,0.045802,-0.305344,-10.248670,-10.203120,-25.981258
67428,55.590557,37.673160,-3.174711,-1.155202,10.204088,0.045802,0.167939,-0.351145,-10.785340,-11.770387,-23.253953
67528,55.590557,37.673160,-1.866280,-1.089362,7.682993,0.167939,0.030534,-0.366412,-10.117484,-12.111962,-20.030998
67628,55.590557,37.673160,-0.198719,-0.689530,6.517017,0.076336,-0.061069,-0.305344,-9.609148,-11.000012,-16.499042
67728,55.590557,37.673160,-0.440533,-0.247800,9.035717,0.045802,-0.076336,-0.183206,-8.734425,-9.435475,-14.159345
67828,55.590557,37.673160,-1.863886,0.325611,11.191697,-0.045802,-0.030534,0.106870,-7.707720,-9.523243,-14.003370
67928,55.590557,37.673160,-2.160767,0.800860,12.585122,-0.076336,-0.030534,0.259542,-7.226455,-8.418224,-16.075807
68028,55.590557,37.673160,-1.899799,1.375469,10.285490,-0.106870,-0.122137,0.290076,-6.089269,-8.668805,-18.882017
68128,55.590557,37.673160,-0.852336,0.787692,7.451953,-0.351145,-0.259542,0.167939,-6.964691,-7.561310,-21.075654
68228,55.590557,37.673160,-0.804452,0.435745,6.810307,-0.366412,-0.351145,0.152672,-9.602356,-4.754393,-22.724565
68328,55.590557,37.673160,-1.206678,-0.606930,8.634689,-0.183206,-0.213740,0.015267,-11.347414,-2.679443,-23.791761
68428,55.590557,37.673160,-1.240196,-1.209072,10.072407,-0.045802,-0.091603,-0.152672,-11.483662,-2.471861,-23.348726
68528,55.590557,37.673160,-1.717840,-1.174356,11.616667,0.061069,0.396947,-0.137405,-11.060496,-3.755093,-22.318626
68628,55.590557,37.673160,-1.217452,-1.468843,8.104373,0.167939,0.229008,-0.061069,-10.167297,-7.080473,-21.428600
68728,55.590557,37.673160,-0.383072,-0.420182,6.999449,-0.030534,-0.259542,-0.030534,-9.057045,-6.739283,-20.925264
68828,55.590557,37.673160,0.166397,-0.591368,8.730457,-0.076336,-0.213740,0.000000,-9.469721,-3.556904,-20.643688
68928,55.590557,37.673160,-0.901417,-0.148441,10.506955,0.106870,0.091603,0.183206,-8.619528,-3.432728,-21.603216
69078,55.590557,37.673160,-1.493982,0.178368,9.509770,-0.030534,-0.076336,0.152672,-7.543357,-3.705302,-24.074018
69178,55.590557,37.673160,-1.526304,0.543484,8.930373,0.000000,0.091603,0.091603,-6.595301,-4.477137,-25.444097
69278,55.590557,37.673160,-0.037110,0.013168,7.167043,-0.137405,-0.152672,0.015267,-6.854546,-4.212151,-25.726095
69378,55.590557,37.673160,0.226252,0.196325,8.447941,-0.106870,-0.137405,0.015267,-7.297587,-2.819451,-26.081071
69478,55.590557,37.673160,-0.702698,0.089783,10.079589,-0.122137,-0.015267,-0.137405,-7.907796,-1.947860,-25.489368
69578,55.590557,37.673160,-1.146823,-0.527921,11.086352,-0.076336,0.015267,-0.213740,-8.272592,-1.590923,-23.624677
69678,55.590557,37.673160,-0.921768,-0.829591,9.744401,-0.061069,0.045802,-0.213740,-8.448954,-2.157081,-21.859273
69778,55.590557,37.673160,-0.559046,-0.463278,8.457518,0.030534,0.000000,-0.091603,-7.948129,-2.509637,-20.855901
69878,55.590557,37.673160,0.342371,-0.079009,7.481880,-0.076336,-0.106870,-0.015267,-8.149551,-1.357890,-20.524290
69978,55.590557,37.673160,1.455675,-0.889446,8.871715,0.015267,-0.030534,0.000000,-8.151517,-0.310352,-20.186355
70078,55.590557,37.673160,-0.153229,0.330400,10.554839,0.000000,0.076336,0.122137,-7.231555,-0.853604,-21.105895
70178,55.590557,37.673160,-0.927753,0.928950,10.838552,-0.030534,-0.045802,0.167939,-6.237983,-1.141839,-22.740863
70278,55.590557,37.673160,-0.817620,0.846350,9.439141,-0.015267,-0.015267,0.244275,-5.514350,-1.414155,-24.680324
70378,55.590557,37.673160,-0.238223,0.397438,7.776367,-0.045802,-0.061069,0.137405,-5.053716,-2.145755,-26.400512
70478,55.590557,37.673160,0.393846,0.386664,8.001422,-0.137405,-0.106870,0.076336,-5.415794,-0.857667,-27.319049
70578,55.590557,37.673160,0.465672,0.336385,8.898051,-0.213740,0.000000,-0.015267,-6.432131,-0.397898,-27.603000
70678,55.590557,37.673160,0.026336,-0.094571,10.111911,-0.152672,0.030534,-0.122137,-7.511111,-0.616885,-26.874092
70778,55.590557,37.673160,-1.021127,-0.505177,11.593922,-0.137405,0.198473,-0.198473,-8.164210,-1.673231,-25.609987
70878,55.590557,37.673160,-1.294066,-1.302446,9.109938,-0.106870,-0.030534,-0.229008,-9.404467,-2.852735,-23.355043
70978,55.590557,37.673160,0.080206,-0.392649,8.380904,0.015267,-0.122137,-0.167939,-9.266033,-1.770537,-21.844944
71130,55.590507,37.673191,1.127669,-0.551863,8.548498,-0.122137,-0.122137,-0.137405,-10.343058,1.484095,-18.867267
71230,55.590507,37.673191,0.828394,-0.530316,9.861718,0.122137,-0.076336,0.091603,-9.699144,2.703830,-18.936779
71330,55.590507,37.673191,0.397438,0.332794,10.910378,0.076336,-0.030534,0.274809,-7.551389,3.123840,-20.895971
71430,55.590507,37.673191,-0.017957,0.900220,9.727642,-0.122137,0.122137,0.335878,-6.906964,1.761039,-23.678424
71530,55.590507,37.673191,-0.462081,0.506374,7.915231,-0.152672,-0.122137,0.335878,-7.527676,1.139216,-26.903591
71630,55.590507,37.673191,-0.920571,0.620098,8.202535,-0.198473,-0.137405,0.106870,-8.255180,1.781946,-29.178159
71730,55.590507,37.673191,0.415394,-0.108936,7.873332,-0.122137,-0.152672,0.045802,-9.282210,2.870474,-29.545013
71830,55.590507,37.673191,0.913388,-0.454898,9.132683,-0.030534,-0.061069,-0.015267,-9.507061,3.921094,-29.750728
71930,55.590507,37.673191,0.532710,-0.202310,10.480618,0.106870,0.045802,-0.152672,-8.240818,3.982582,-29.026536
72030,55.590507,37.673191,0.057461,-0.397438,9.731233,0.030534,-0.045802,-0.259542,-6.874494,3.435980,-27.237968
72130,55.590507,37.673191,0.202310,-0.189142,9.051280,-0.030534,0.061069,-0.198473,-6.231995,3.492972,-25.294853
72230,55.590507,37.673191,1.078588,0.143652,7.817069,-0.122137,-0.015267,-0.122137,-6.546434,3.747262,-23.763736
72330,55.590507,37.673191,1.841141,-0.335188,8.014591,0.015267,-0.030534,-0.061069,-6.655445,4.392804,-22.813091
72430,55.590507,37.673191,1.430536,0.396240,9.494207,0.137405,0.167939,0.076336,-5.483235,4.395956,-22.942003
72530,55.590507,37.673191,-0.295684,1.073799,10.522517,0.076336,0.137405,0.183206,-3.386434,2.755399,-24.212858
72630,55.590507,37.673191,-0.755371,1.170765,9.962274,0.000000,0.213740,0.183206,-2.308546,0.278679,-25.586641
72730,55.590507,37.673191,-0.380678,0.518345,8.798691,-0.167939,0.106870,0.091603,-2.537231,-1.882251,-26.763854
72830,55.590507,37.673191,0.264559,-0.110133,7.654263,-0.183206,-0.167939,0.030534,-4.004900,-1.117528,-27.517145
72930,55.590507,37.673191,0.396240,0.442927,8.883686,-0.167939,-0.061069,-0.045802,-4.973287,0.148831,-27.637641
73231,55.590484,37.673213,-0.912191,-1.112107,8.252814,0.076336,0.000000,-0.198473,-7.055109,-3.058091,-20.616531
73331,55.590484,37.673213,-0.129287,-0.233435,7.564480,0.000000,-0.290076,-0.152672,-6.013526,-1.503760,-19.171136
73431,55.590484,37.673213,0.468066,0.160412,7.979874,-0.152672,-0.183206,-0.152672,-6.478177,0.966008,-17.670948
73531,55.590484,37.673213,0.682347,0.228646,9.734825,-0.030534,-0.015267,-0.030534,-6.674909,2.343323,-16.820627
73631,55.590484,37.673213,-0.367510,0.991199,10.800245,-0.045802,0.152672,0.106870,-5.994687,1.194080,-17.190240
73731,55.590484,37.673213,-0.553061,1.054646,9.803059,-0.045802,0.152672,0.213740,-5.312114,-1.644232,-18.532869
73831,55.590484,37.673213,-0.691924,1.086968,8.936358,-0.045802,0.091603,0.229008,-4.570189,-3.177567,-20.920869
73931,55.590484,37.673213,-0.068235,0.208296,7.523779,-0.152672,-0.167939,0.167939,-5.084780,-2.534060,-22.518802
74031,55.590484,37.673213,-0.253785,0.390255,8.910022,-0.198473,-0.122137,0.045802,-5.953590,-1.479533,-23.728300
74131,55.590484,37.673213,-1.252167,0.080206,10.392033,-0.106870,-0.015267,-0.183206,-6.760766,-1.491503,-23.131460
74231,55.590484,37.673213,-1.350330,-0.253785,11.713632,-0.106870,0.030534,-0.229008,-7.594682,-0.746444,-21.231872
74331,55.590484,37.673213,-0.804452,-0.879869,8.574833,-0.015267,0.076336,-0.198473,-7.935444,-2.042906,-19.124942
74431,55.590484,37.673213,-0.039504,-0.367510,7.333440,-0.030534,-0.061069,-0.122137,-7.563682,-2.254809,-17.798383
74531,55.590484,37.673213,0.493206,0.010774,7.647080,-0.030534,-0.106870,-0.076336,-7.595711,-0.658092,-17.094251
74631,55.590484,37.673213,0.565032,0.160412,9.295489,0.045802,0.045802,0.061069,-6.890525,-0.341160,-16.878709
74731,55.590484,37.673213,-0.586579,0.487220,10.551247,-0.061069,-0.076336,0.213740,-6.157301,-0.491471,-18.036550
74831,55.590484,37.673213,-1.632845,1.085770,10.052057,0.000000,0.076336,0.198473,-5.135201,-2.471842,-20.174932
74931,55.590484,37.673213,-1.337162,1.096544,8.995017,-0.076336,-0.045802,0.167939,-4.266616,-2.903835,-22.306385
75231,55.590465,37.673225,-0.718261,0.471658,10.025720,-0.076336,0.015267,-0.106870,-7.256886,-0.560215,-23.736967
75331,55.590465,37.673225,-0.913388,-0.282516,11.348517,-0.152672,0.045802,-0.229008,-7.744044,-0.372495,-21.973117
75431,55.590465,37.673225,-0.475249,-0.515950,9.016564,-0.015267,0.045802,-0.198473,-7.801867,-1.919574,-19.983613
75531,55.590465,37.673225,-0.300472,-0.148441,8.689756,0.045802,0.106870,-0.076336,-6.924669,-2.179858,-19.067716
75631,55.590465,37.673225,-0.067038,0.105345,7.885303,0.015267,-0.015267,-0.045802,-6.567498,-2.162841,-18.840074
75731,55.590465,37.673225,0.975637,0.186748,8.774749,0.030534,-0.167939,0.015267,-5.745418,-0.984996,-18.483627
75831,55.590465,37.673225,-0.354342,0.872686,10.615891,-0.030534,0.061069,0.137405,-4.773573,-0.726626,-19.617969
75931,55.590465,37.673225,-0.571017,0.761356,10.783485,-0.030534,0.091603,0.198473,-4.499159,-0.870669,-21.371349
76032,55.590465,37.673225,-1.493982,1.476025,9.828199,-0.076336,0.137405,0.213740,-3.358742,-2.922218,-23.652666
76132,55.590465,37.673225,-0.490811,0.499191,7.586028,-0.213740,-0.213740,0.091603,-4.055747,-3.113456,-25.130569
76232,55.590465,37.673225,0.046687,0.318429,8.337808,-0.167939,-0.091603,0.076336,-5.245724,-1.448428,-26.009172
76332,55.590465,37.673225,-0.348356,0.445322,9.301474,-0.137405,-0.061069,-0.106870,-5.960778,-0.904157,-25.981330
76432,55.590465,37.673225,-0.432153,-0.202310,10.557233,-0.106870,0.045802,-0.229008,-6.249682,-1.430826,-24.276372
76532,55.590465,37.673225,-1.155202,0.080206,10.262746,-0.106870,0.137405,-0.244275,-6.484207,-2.899131,-22.577289
76632,55.590465,37.673225,-0.215478,-0.802058,7.785944,0.030534,0.015267,-0.122137,-7.115439,-2.974321,-20.890729
76732,55.590465,37.673225,0.193930,0.247800,7.611167,0.045802,-0.076336,0.015267,-6.175153,-2.119003,-20.564889
76832,55.590465,37.673225,0.820014,0.343568,9.428367,-0.106870,-0.061069,0.091603,-5.709322,-1.065858,-21.133081
76932,55.590465,37.673225,-0.450110,0.890643,10.559627,-0.030534,0.061069,0.198473,-5.266144,-1.571003,-22.726905
77032,55.590450,37.673240,-1.447295,0.805649,10.435129,0.106870,0.274809,0.152672,-4.356870,-3.233330,-24.560716
77150,55.590450,37.673240,-2.138022,1.381454,9.520544,-0.061069,0.122137,0.183206,-2.728730,-5.657996,-26.714874
77250,55.590450,37.673240,-0.458490,0.410606,7.332242,-0.274809,-0.213740,0.106870,-3.722506,-5.356830,-27.979993
77350,55.590450,37.673240,0.033519,0.390255,7.972692,-0.152672,-0.076336,0.061069,-5.255726,-3.766466,-29.048547
77450,55.590450,37.673240,-1.163582,0.472855,9.957486,-0.167939,-0.061069,-0.290076,-5.924454,-3.071471,-27.998723
77550,55.590450,37.673240,-1.005565,-0.415394,11.216835,-0.091603,0.076336,-0.366412,-6.607830,-3.008500,-24.934497
77650,55.590450,37.673240,-1.474828,-0.353145,10.013749,-0.015267,0.259542,-0.351145,-6.684421,-5.620269,-21.697572
77750,55.590450,37.673240,-0.999579,-0.214281,7.887698,0.061069,-0.061069,-0.183206,-6.181816,-6.337619,-19.431976
77850,55.590450,37.673240,0.166397,0.227449,7.417237,-0.061069,-0.183206,-0.045802,-6.136630,-4.515182,-18.327564
77950,55.590450,37.673240,0.444124,0.342371,8.943541,-0.061069,-0.137405,0.015267,-6.168969,-2.626023,-18.101127
78050,55.590450,37.673240,-0.436942,0.579397,10.177752,0.000000,0.015267,0.213740,-5.290993,-2.402979,-19.520656
78150,55.590450,37.673240,-1.747767,0.762553,11.445482,-0.076336,0.305344,0.290076,-4.805428,-3.956536,-22.366456
78251,55.590450,37.673240,-1.849521,0.845153,8.969877,-0.015267,0.091603,0.274809,-4.333295,-6.564419,-25.107662
78351,55.590450,37.673240,-31.668106,10.281900,-15.720329,143.099243,-1.648855,-417.877868,89.264648,-24.790924,0.871902
78451,55.590450,37.673240,-0.762553,0.002394,8.151061,-0.183206,-0.152672,0.045802,-5.701034,-5.975223,-27.981029
78551,55.590450,37.673240,-1.726219,0.095768,9.665392,-0.183206,-0.167939,-0.213740,-6.562113,-4.824485,-27.444242
78651,55.590450,37.673240,-1.717840,-1.137246,11.036073,-0.213740,0.015267,-0.473282,-8.574848,-3.908928,-23.826429
78751,55.590450,37.673240,-1.168370,-0.799663,9.635465,0.061069,0.183206,-0.442748,-8.661321,-5.494099,-19.810613
78851,55.590450,37.673240,-0.548272,-0.211887,7.823054,0.000000,-0.030534,-0.351145,-8.060608,-5.827569,-16.107549
78951,55.590450,37.673240,0.065841,0.306458,7.709330,-0.106870,-0.152672,-0.213740,-8.180605,-4.129326,-13.718094
79051,55.590427,37.673252,-0.418985,0.208296,9.047689,-0.076336,-0.091603,0.000000,-8.165786,-2.738638,-12.879687
79165,55.590427,37.673252,-1.182736,0.198719,10.811018,-0.137405,0.045802,0.320611,-8.129115,-3.103137,-14.648310
79265,55.590427,37.673252,-2.062605,1.168370,9.909602,0.000000,0.259542,0.320611,-7.054131,-7.106806,-17.968948
79365,55.590427,37.673252,-2.026692,0.980426,9.087193,0.030534,0.198473,0.335878,-5.349066,-9.581960,-21.293840
79465,55.590427,37.673252,-1.470040,0.618901,6.957550,-0.244275,-0.290076,0.183206,-5.370250,-9.536358,-23.792915
79565,55.590427,37.673252,-0.798466,-0.168791,8.554483,-0.030534,-0.198473,0.122137,-5.942235,-6.992815,-25.282867
79665,55.590427,37.673252,-2.007538,0.070629,10.582372,-0.091603,-0.091603,-0.061069,-5.862648,-6.093487,-25.516399
79765,55.590427,37.673252,-1.592144,-0.448913,10.724827,-0.030534,0.045802,-0.274809,-6.691461,-5.503984,-23.613742
79865,55.590427,37.673252,-1.347936,-0.787692,9.864111,0.076336,0.091603,-0.320611,-6.238436,-6.131110,-20.806606
79965,55.590427,37.673252,-0.951695,0.005986,8.244434,-0.152672,-0.152672,-0.244275,-6.233124,-5.814320,-18.484350
80065,55.590427,37.673252,0.171185,0.435745,7.043741,-0.137405,-0.152672,-0.015267,-7.282207,-3.710094,-17.413011
80165,55.590427,37.673252,-0.075417,0.495600,7.958326,-0.015267,-0.030534,0.229008,-7.165816,-3.060168,-18.567754
80265,55.590427,37.673252,0.095768,0.426168,9.097967,-0.030534,0.000000,0.412214,-6.397931,-3.129415,-21.636831
80365,55.590427,37.673252,-2.112883,0.846350,10.821792,-0.137405,0.381679,0.320611,-5.566850,-7.212230,-25.647523
80465,55.590427,37.673252,-1.408988,0.719458,10.406398,0.015267,0.167939,0.442748,-4.952469,-8.478320,-29.581010
80565,55.590427,37.673252,-1.316811,0.483629,7.242460,-0.091603,-0.030534,0.137405,-3.833118,-10.478737,-32.382678
80665,55.590427,37.673252,-0.568623,-0.694318,7.485472,-0.167939,-0.152672,0.000000,-4.903776,-9.070759,-33.074146
80765,55.590427,37.673252,-1.435324,-0.226252,9.018959,-0.152672,-0.167939,-0.381679,-6.299308,-7.437473,-31.498922
80865,55.590427,37.673252,-2.251747,-0.545878,11.532870,-0.152672,-0.183206,-0.564885,-7.628153,-5.480873,-26.828304
80965,55.590427,37.673252,-2.063802,-0.604536,11.549630,-0.137405,0.091603,-0.519084,-8.287925,-6.177919,-22.059730
81265,55.590400,37.673267,-0.322020,0.683545,8.598776,-0.030534,-0.091603,0.106870,-7.759311,-5.222484,-14.616838
81366,55.590400,37.673267,-1.291672,1.781286,11.077972,-0.137405,-0.106870,0.427481,-6.711935,-5.158291,-17.430812
81466,55.590400,37.673267,-1.918953,1.426944,10.387245,0.015267,0.213740,0.549618,-5.493099,-7.298977,-22.437892
81566,55.590400,37.673267,-1.753753,1.768118,9.210494,-0.106870,0.198473,0.412214,-3.856060,-9.864977,-27.394149
81666,55.590400,37.673267,-0.988805,-0.137667,6.828263,-0.259542,-0.244275,0.305344,-4.761976,-9.092689,-30.877111
81766,55.590400,37.673267,-1.504756,-0.196325,8.427591,-0.183206,-0.198473,0.076336,-6.077737,-7.446739,-33.080902
81866,55.590400,37.673267,-2.595315,-0.178368,10.656592,-0.137405,-0.061069,-0.351145,-7.262076,-6.672380,-31.868370
81966,55.590400,37.673267,-2.633622,-0.610521,11.432313,0.061069,0.183206,-0.519084,-7.719928,-7.160517,-27.787122
82066,55.590400,37.673267,-1.662773,-0.609324,9.141062,0.030534,0.000000,-0.519084,-7.575706,-7.515461,-23.174692
82166,55.590400,37.673267,0.287304,-0.310049,6.200983,0.000000,-0.137405,-0.381679,-7.727186,-6.280937,-18.902503
82266,55.590400,37.673267,0.656011,0.538695,8.204930,0.015267,-0.061069,-0.152672,-7.203776,-4.283799,-16.524669
82366,55.590400,37.673267,-0.477643,0.769736,10.110714,0.015267,-0.030534,0.229008,-6.411612,-3.480238,-16.926038
82466,55.590400,37.673267,-0.958878,1.222240,11.500548,-0.030534,0.000000,0.503817,-5.571853,-3.196671,-20.517574
82566,55.590400,37.673267,-1.795651,1.630451,9.674969,0.000000,0.213740,0.473282,-3.799008,-6.422443,-25.309333
82666,55.590400,37.673267,-1.227028,0.636858,7.595605,-0.045802,0.106870,0.335878,-2.840652,-8.116511,-29.147352
82766,55.590400,37.673267,-0.806846,-0.122104,7.888895,-0.244275,-0.076336,0.229008,-3.438242,-8.112601,-32.037170
82866,55.590400,37.673267,-1.856703,-0.270545,9.616312,-0.229008,-0.167939,-0.061069,-5.156072,-7.378748,-33.118282
82966,55.590400,37.673267,-2.580950,-0.670376,10.994174,-0.152672,-0.015267,-0.366412,-6.945939,-6.957089,-31.007802
83234,55.590377,37.673282,-0.143652,-0.293290,6.464344,-0.106870,-0.244275,-0.442748,-8.102122,-6.511518,-20.082706
83334,55.590377,37.673282,0.609324,0.096965,7.845799,0.000000,-0.015267,-0.213740,-8.270909,-4.317727,-17.023849
83434,55.590377,37.673282,-0.986411,0.701501,10.087969,-0.015267,0.000000,0.061069,-7.178770,-4.469156,-16.517005
83534,55.590377,37.673282,-1.515530,0.822408,11.281479,-0.106870,0.015267,0.274809,-6.815422,-4.612748,-18.199735
83634,55.590377,37.673282,-1.511938,0.729034,9.360132,-0.030534,0.076336,0.320611,-6.186989,-6.401391,-21.086645
83734,55.590377,37.673282,-0.690727,0.752976,7.779958,-0.091603,0.137405,0.290076,-5.550803,-7.965716,-24.101888
83834,55.590377,37.673282,-0.328006,-0.022745,7.599196,-0.183206,-0.076336,0.213740,-6.144357,-7.780312,-26.589212
83934,55.590377,37.673282,-1.857901,0.442927,9.707291,-0.091603,-0.183206,0.030534,-6.168988,-7.400340,-28.126806
84034,55.590377,37.673282,-2.568978,0.111330,11.464635,-0.229008,-0.229008,-0.274809,-6.853455,-5.841722,-27.213962
84134,55.590377,37.673282,-1.479617,-0.952892,10.796653,-0.106870,0.061069,-0.366412,-8.913490,-4.150455,-24.173933
84234,55.590377,37.673282,-1.389834,-0.828394,7.837419,0.137405,0.305344,-0.412214,-8.799823,-6.524214,-20.583322
84334,55.590377,37.673282,-0.488417,-0.310049,6.938396,-0.106870,-0.167939,-0.381679,-8.481184,-6.402576,-16.989200
84434,55.590377,37.673282,0.167594,-0.211887,8.237252,-0.076336,-0.137405,-0.183206,-9.133685,-4.233678,-14.654519
84534,55.590377,37.673282,-0.785298,0.395043,10.290279,0.045802,0.061069,0.137405,-7.998460,-3.886331,-14.681489
84634,55.590377,37.673282,-1.620874,0.814029,10.445902,0.000000,0.061069,0.305344,-6.970864,-5.136060,-16.849681
84734,55.590377,37.673282,-2.315193,0.354342,9.734825,0.045802,0.106870,0.335878,-5.752941,-7.562553,-19.962747
84834,55.590377,37.673282,-1.783680,0.651223,8.653842,-0.030534,0.030534,0.259542,-4.495379,-8.756142,-22.830728
84934,55.590377,37.673282,-0.507571,-0.011971,7.204153,-0.167939,-0.152672,0.198473,-4.689229,-8.008575,-24.957532
85035,55.590354,37.673294,-0.465672,-0.079009,7.985860,-0.274809,-0.183206,0.167939,-6.431803,-6.149793,-27.323534
85150,55.590354,37.673294,-1.617283,-0.142455,9.625888,-0.137405,-0.122137,-0.137405,-7.809024,-4.925114,-27.466884
85250,55.590354,37.673294,-1.611298,-0.503979,11.702858,-0.091603,0.076336,-0.351145,-8.293519,-4.280668,-25.038665
85350,55.590354,37.673294,-1.586159,-0.833182,9.598355,-0.061069,0.213740,-0.396947,-8.918091,-6.441490,-21.645660
85450,55.590354,37.673294,-0.889446,-0.587777,7.193379,0.000000,-0.091603,-0.335878,-9.100779,-6.540012,-18.448114
85550,55.590354,37.673294,0.257377,-0.253785,7.292738,0.061069,-0.030534,-0.213740,-8.671234,-4.881716,-15.856586
85650,55.590354,37.673294,0.122104,0.373495,9.291897,0.000000,0.030534,0.045802,-7.659899,-4.505660,-15.025674
85750,55.590354,37.673294,-0.847547,1.052252,10.481816,-0.076336,-0.061069,0.335878,-6.719804,-4.901754,-17.032625
85850,55.590354,37.673294,-1.408988,1.426944,11.942278,-0.015267,0.122137,0.519084,-5.700986,-4.795103,-21.353511
85950,55.590354,37.673294,-1.631648,1.762132,9.190144,-0.091603,0.091603,0.458015,-4.271244,-6.875025,-26.151704
86050,55.590354,37.673294,-0.826000,0.397438,6.776788,-0.061069,-0.076336,0.366412,-3.798250,-7.463780,-29.991266
86150,55.590354,37.673294,-0.193930,0.031125,7.821857,-0.229008,-0.106870,0.259542,-4.389128,-6.484383,-33.031162
86250,55.590354,37.673294,-1.567005,-0.118513,10.314222,-0.259542,0.076336,0.015267,-6.177757,-6.357270,-34.458003
86350,55.590354,37.673294,-2.559401,-0.812831,11.443087,-0.137405,0.198473,-0.305344,-7.813075,-7.757859,-33.160339
86450,55.590354,37.673294,-2.817975,-0.788889,9.273941,0.122137,0.091603,-0.412214,-7.579906,-10.584242,-29.937063
86550,55.590354,37.673294,-1.680730,-0.328006,8.494628,-0.045802,-0.122137,-0.473282,-7.551575,-9.740546,-25.790124
86650,55.590354,37.673294,0.503979,0.146046,7.290344,-0.076336,-0.198473,-0.305344,-8.280588,-6.924077,-22.152675
86750,55.590354,37.673294,0.108936,0.636858,8.871715,0.000000,0.015267,-0.061069,-7.776817,-5.558991,-20.481529
86850,55.590354,37.673294,-1.240196,1.349133,10.095152,-0.076336,-0.030534,0.274809,-6.595625,-5.996513,-21.861425
87056,55.590332,37.673305,-2.035071,1.458069,8.831013,-0.137405,0.106870,0.534351,-4.729267,-10.890793,-31.724264
87156,55.590332,37.673305,-1.193510,0.333991,7.240066,-0.290076,-0.259542,0.381679,-5.054147,-10.519467,-36.139614
87256,55.590332,37.673305,-1.140837,-0.211887,7.886500,-0.244275,-0.152672,0.198473,-6.814480,-8.719396,-39.058029
87356,55.590332,37.673305,-2.904167,-0.079009,9.944317,-0.183206,0.045802,-0.122137,-8.096995,-8.825141,-39.823287
87456,55.590332,37.673305,-2.111686,-0.986411,11.275493,-0.091603,0.030534,-0.305344,-9.274704,-8.778241,-37.869117
87556,55.590332,37.673305,-2.366668,-1.247379,9.641450,0.061069,0.061069,-0.335878,-9.242231,-9.637278,-35.111007
87656,55.590332,37.673305,-1.256956,-0.650026,7.111976,0.000000,-0.183206,-0.381679,-8.995542,-8.821660,-31.866191
87756,55.590332,37.673305,0.183156,-0.541090,7.121553,0.045802,-0.183206,-0.229008,-9.100881,-5.824696,-28.935359
87856,55.590332,37.673305,-0.124498,0.094571,9.466674,0.030534,0.076336,0.015267,-7.943551,-4.837482,-28.110248
87956,55.590332,37.673305,-1.142034,0.963666,10.396821,-0.106870,0.106870,0.213740,-7.326736,-6.502585,-29.418514
88056,55.590332,37.673305,-1.848324,1.249773,10.764331,-0.061069,0.167939,0.381679,-6.284107,-8.400298,-32.770401
88156,55.590332,37.673305,-1.461660,1.143231,9.512164,-0.106870,0.137405,0.396947,-5.415054,-9.886194,-36.686962
88256,55.590332,37.673305,-0.909797,0.142455,7.188591,-0.213740,-0.122137,0.335878,-5.497004,-10.272428,-40.357833
88356,55.590332,37.673305,-1.191115,-0.428562,8.086417,-0.167939,-0.137405,0.198473,-6.864182,-8.993622,-42.957115
88456,55.590332,37.673305,-2.492364,-0.280122,9.708488,-0.061069,-0.122137,-0.122137,-7.261435,-8.582300,-43.521598
88556,55.590332,37.673305,-1.873463,-1.046266,11.028890,0.015267,0.076336,-0.427481,-8.120223,-7.475918,-40.753463
88656,55.590332,37.673305,-1.458069,-1.326388,9.527726,0.198473,0.244275,-0.473282,-7.144277,-9.106784,-36.638992
88756,55.590332,37.673305,-1.577779,-0.257377,7.886500,0.152672,-0.061069,-0.396947,-5.775787,-9.869910,-32.716186
88856,55.590332,37.673305,-0.745794,0.361524,7.742848,-0.076336,-0.335878,-0.244275,-5.566744,-7.383844,-29.567453
89156,55.590309,37.673316,-1.563414,1.501164,9.925164,-0.213740,0.274809,0.381679,-5.905087,-7.966761,-33.961471
89256,55.590309,37.673316,-1.741782,1.095347,8.312668,-0.167939,0.167939,0.351145,-5.874588,-11.021029,-37.986167
89356,55.590309,37.673316,-0.993594,-0.099359,7.274782,-0.152672,-0.229008,0.274809,-6.309235,-10.317606,-40.959621
89456,55.590309,37.673316,-1.376666,0.000000,8.862138,-0.167939,-0.152672,0.122137,-6.889208,-8.775049,-42.896915
89556,55.590309,37.673316,-2.115277,-0.268151,10.928334,-0.183206,0.030534,-0.198473,-7.853174,-8.217497,-42.746292
89656,55.590309,37.673316,-2.873042,-1.496376,11.404780,-0.015267,0.305344,-0.396947,-9.404758,-9.536087,-39.989799
89756,55.590309,37.673316,-2.944868,-1.375469,8.641872,0.122137,0.000000,-0.503817,-9.435864,-11.267353,-36.102470
89856,55.590309,37.673316,-0.669179,-0.575805,6.563704,0.106870,-0.183206,-0.473282,-8.729354,-9.766333,-31.302919
89956,55.590309,37.673316,-0.112527,0.271742,7.565677,-0.030534,-0.076336,-0.351145,-8.449303,-7.368605,-27.460796
90056,55.590309,37.673316,-0.693121,0.385467,9.459491,-0.137405,0.015267,-0.015267,-8.465421,-6.669243,-25.844429
90156,55.590309,37.673316,-1.432930,0.379481,9.306262,-0.091603,0.000000,0.396947,-8.905858,-7.393655,-27.802366
90256,55.590309,37.673316,-2.620454,1.660379,11.344925,0.137405,0.427481,0.412214,-6.069338,-11.043970,-32.310623
90356,55.590309,37.673316,-1.678335,0.848744,9.005790,-0.213740,-0.122137,0.366412,-4.448558,-12.969693,-36.034461
90456,55.590309,37.673316,-0.928950,-0.226252,7.836222,-0.335878,-0.274809,0.351145,-6.186945,-10.700186,-39.435806
90556,55.590309,37.673316,-1.701080,-0.357933,8.567651,-0.244275,-0.244275,0.091603,-8.019150,-8.742467,-41.728965
90656,55.590309,37.673316,-2.729390,-0.803255,10.226833,-0.229008,-0.045802,-0.229008,-9.596202,-8.037928,-41.248775
90756,55.590309,37.673316,-2.913743,-1.462857,10.718841,-0.015267,0.259542,-0.396947,-11.128187,-8.898663,-38.495437
90856,55.590309,37.673316,-2.147599,-1.510741,8.809466,0.076336,0.091603,-0.351145,-11.427209,-10.206151,-35.205280
91156,55.590286,37.673324,-1.277307,-0.020351,10.040085,0.061069,-0.030534,0.015267,-8.516840,-7.656544,-28.739002
91256,55.590286,37.673324,-2.535459,0.640449,11.578360,-0.030534,0.030534,0.244275,-7.054164,-8.295236,-30.058383
91356,55.590286,37.673324,-2.280477,1.011550,9.428367,0.015267,-0.015267,0.274809,-5.713929,-9.715598,-32.423748
91456,55.590286,37.673324,-1.896208,1.102530,8.335413,-0.122137,0.106870,0.198473,-4.580157,-10.775251,-35.013576
91556,55.590286,37.673324,-0.768539,0.113725,7.098808,-0.244275,-0.213740,0.122137,-5.724001,-9.879014,-36.551872
91656,55.590286,37.673324,-1.169568,0.108936,8.919599,-0.244275,-0.106870,0.000000,-7.144647,-8.267129,-37.364463
91756,55.590286,37.673324,-2.428918,-0.177171,9.739613,-0.213740,-0.045802,-0.244275,-8.662107,-8.471364,-36.477672
91856,55.590286,37.673324,-2.201468,-0.711078,10.881648,-0.030534,0.137405,-0.259542,-9.987871,-8.070747,-34.124794
91956,55.590286,37.673324,-1.696292,-0.781707,8.731654,0.015267,0.091603,-0.244275,-9.859664,-9.448357,-31.860593
92056,55.590286,37.673324,-0.745794,-0.542287,7.152678,0.061069,0.000000,-0.152672,-9.049200,-9.503772,-30.202653
92156,55.590286,37.673324,-0.531513,-0.302867,7.794323,0.015267,-0.106870,-0.091603,-8.573245,-8.521833,-29.167068
92256,55.590286,37.673324,-1.707066,0.438139,10.108320,0.045802,-0.076336,0.076336,-7.301766,-7.805264,-29.327682
92356,55.590286,37.673324,-1.465251,0.918176,10.734404,-0.045802,-0.076336,0.274809,-6.312044,-7.219663,-30.929771
92456,55.590286,37.673324,-1.558625,1.408988,9.409214,0.015267,0.167939,0.396947,-4.837312,-9.167569,-34.177322
92556,55.590286,37.673324,-1.681927,1.157596,7.991845,-0.061069,0.167939,0.366412,-3.572540,-11.218015,-38.103664
92656,55.590286,37.673324,-1.052252,0.381875,7.545327,-0.213740,-0.152672,0.244275,-3.686288,-10.905583,-40.951843
92756,55.590286,37.673324,-1.447295,0.395043,8.905234,-0.244275,-0.198473,0.106870,-5.044813,-9.373474,-42.825225
92856,55.590286,37.673324,-2.510320,0.190339,10.562022,-0.167939,0.015267,-0.137405,-6.306546,-9.065496,-42.992523
92956,55.590286,37.673324,-2.937685,-0.562637,9.895236,0.076336,0.198473,-0.290076,-7.087749,-10.469907,-41.017807
93223,55.590259,37.673332,-0.253785,-0.034716,7.715315,-0.076336,-0.137405,-0.167939,-6.454094,-9.445474,-33.960853
93323,55.590259,37.673332,-0.578200,0.143652,8.936358,-0.030534,-0.152672,0.000000,-6.616970,-7.703295,-33.176643
93423,55.590259,37.673332,-1.119289,0.836773,10.353726,0.015267,-0.045802,0.229008,-5.216564,-7.236968,-34.471225
93523,55.590259,37.673332,-2.462436,1.308431,10.467451,-0.061069,0.290076,0.290076,-3.998867,-9.517256,-37.311805
93623,55.590259,37.673332,-2.201468,1.455675,8.722077,-0.213740,-0.015267,0.274809,-3.644178,-10.991338,-40.468090
93723,55.590259,37.673332,-0.578200,0.341174,7.071275,-0.259542,-0.167939,0.183206,-4.798541,-9.976811,-42.692222
93824,55.590259,37.673332,-1.074997,0.050278,8.305486,-0.198473,-0.030534,0.076336,-6.188544,-9.271448,-44.270420
93924,55.590259,37.673332,-2.798822,-0.266953,10.122685,-0.106870,-0.061069,-0.213740,-7.261898,-9.043111,-43.911037
94024,55.590259,37.673332,-3.234566,-0.667982,11.279085,-0.045802,0.213740,-0.412214,-8.351038,-9.252696,-40.983642
94124,55.590259,37.673332,-2.493561,-0.559046,8.954315,0.076336,0.091603,-0.473282,-8.322802,-11.116202,-37.035064
94224,55.590259,37.673332,-0.328006,-0.177171,7.216124,-0.015267,-0.183206,-0.335878,-8.097742,-9.649741,-33.206253
94324,55.590259,37.673332,-0.269348,0.169988,8.105570,-0.106870,-0.076336,-0.167939,-8.364405,-7.949984,-31.200038
94424,55.590259,37.673332,-0.994791,0.128090,9.524135,0.000000,-0.198473,0.045802,-7.989982,-6.638465,-30.879188
94524,55.590259,37.673332,-0.955286,0.685939,10.965444,0.061069,0.030534,0.290076,-6.739298,-5.649254,-32.487739
94624,55.590259,37.673332,-2.149993,1.089362,9.716868,0.030534,0.229008,0.351145,-4.643895,-9.082996,-35.658596
94724,55.590259,37.673332,-1.745373,1.339556,8.304289,-0.229008,0.015267,0.305344,-4.081216,-10.543337,-39.330394
94824,55.590259,37.673332,-0.594959,-0.112527,7.092823,-0.244275,-0.122137,0.183206,-5.746525,-9.592939,-41.617038
94924,55.590259,37.673332,-1.541866,0.011971,8.826225,-0.167939,-0.091603,0.000000,-6.710683,-9.081815,-42.691055
95224,55.590236,37.673347,-1.934515,-1.292869,8.752005,0.137405,0.152672,-0.427481,-9.668789,-9.593228,-34.132347
95324,55.590236,37.673347,-0.465672,-0.229843,6.937200,0.030534,-0.213740,-0.335878,-8.754630,-8.904850,-30.606544
95424,55.590236,37.673347,0.333991,0.065841,8.358159,-0.061069,-0.167939,-0.152672,-8.861390,-5.992852,-28.151878
95524,55.590236,37.673347,-1.090559,0.168791,10.044874,0.000000,0.015267,0.213740,-8.339012,-5.424191,-28.583312
95624,55.590236,37.673347,-1.574188,0.593762,11.125856,0.061069,0.152672,0.549618,-6.982423,-6.315052,-32.356605
95724,55.590236,37.673347,-2.197877,1.576582,9.615115,0.015267,0.229008,0.503817,-4.500391,-9.966807,-37.539062
95824,55.590236,37.673347,-1.610101,0.626084,7.824251,-0.137405,0.000000,0.381679,-3.488989,-11.329453,-41.814811
95924,55.590236,37.673347,-0.933739,-0.220267,7.852982,-0.290076,-0.244275,0.274809,-4.887718,-9.791682,-44.891677
96024,55.590236,37.673347,-2.072181,-0.126893,9.998187,-0.213740,-0.152672,-0.091603,-6.349762,-8.164578,-46.053115
96124,55.590236,37.673347,-2.691083,-0.828394,10.951079,-0.167939,0.030534,-0.442748,-8.180083,-7.681486,-43.563060
96224,55.590236,37.673347,-2.888604,-0.875081,9.848549,0.091603,0.198473,-0.503817,-8.513516,-10.009810,-39.334674
96324,55.590236,37.673347,-1.559822,-0.487220,8.038533,-0.030534,-0.152672,-0.549618,-8.575600,-9.409163,-34.628242
96424,55.590236,37.673347,-0.074220,-0.347159,6.447585,-0.030534,-0.183206,-0.396947,-9.429042,-6.835320,-30.050897
96524,55.590236,37.673347,-0.387861,0.147243,8.273164,0.045802,-0.061069,-0.122137,-8.796866,-5.449995,-27.830207
96624,55.590236,37.673347,-1.497573,0.793678,10.198102,-0.015267,-0.061069,0.167939,-7.532446,-5.303692,-28.425083
96724,55.590236,37.673347,-2.019509,1.215057,11.686099,0.045802,0.351145,0.320611,-6.236888,-7.025725,-31.116584
96824,55.590236,37.673347,-1.762132,1.496376,9.968259,-0.106870,0.091603,0.366412,-4.642664,-9.259877,-34.471969
96924,55.590236,37.673347,-0.883460,0.362722,7.096414,-0.137405,0.015267,0.320611,-4.512250,-10.481734,-38.038295
97024,55.590236,37.673347,-1.143231,-0.148441,8.064868,-0.335878,-0.320611,0.076336,-6.095442,-8.694635,-40.278259
97149,55.590209,37.673362,-2.582147,-0.247800,10.268732,-0.152672,-0.045802,-0.229008,-8.116051,-7.121412,-39.816627
97249,55.590209,37.673362,-2.701857,-1.306037,10.930728,0.015267,0.106870,-0.503817,-9.262271,-6.752759,-36.300643
97349,55.590209,37.673362,-1.942895,-0.882263,9.369709,0.061069,0.045802,-0.549618,-8.575632,-7.897083,-31.786174
97449,55.590209,37.673362,-0.602142,-0.348356,7.584831,-0.045802,-0.137405,-0.503817,-8.570870,-6.763761,-27.131635
97549,55.590209,37.673362,0.798466,-0.001197,7.469909,-0.091603,-0.122137,-0.290076,-9.265293,-3.973261,-23.410049
97649,55.590209,37.673362,0.664391,-0.343568,9.126697,0.045802,-0.015267,0.122137,-8.841622,-2.722563,-22.665925
97750,55.590209,37.673362,-1.083376,0.881066,10.861296,-0.045802,-0.106870,0.366412,-7.593086,-3.353506,-25.143482
97850,55.590209,37.673362,-2.449268,2.145205,10.843340,-0.030534,0.137405,0.412214,-6.034814,-5.038640,-29.312971
97950,55.590209,37.673362,-1.800440,0.330400,8.230069,-0.091603,-0.076336,0.351145,-5.718911,-6.119401,-32.968196
98050,55.590209,37.673362,-0.854730,-0.380678,6.891710,-0.030534,-0.198473,0.198473,-5.529318,-5.187984,-35.666984
98150,55.590209,37.673362,-0.530316,-0.582988,8.204930,0.030534,-0.076336,0.061069,-5.328586,-3.969605,-36.934043
98250,55.590209,37.673362,-2.202666,-0.227449,11.468227,-0.061069,0.045802,-0.244275,-4.718811,-4.263386,-36.462909
98350,55.590209,37.673362,-2.182315,-0.351948,11.847707,-0.274809,0.076336,-0.488550,-6.602564,-4.882420,-33.141124
98450,55.590209,37.673362,-0.956484,-1.398214,8.910022,-0.137405,0.030534,-0.549618,-9.057011,-4.738385,-28.242582
98550,55.590209,37.673362,-0.029928,-1.011550,6.861782,-0.030534,-0.061069,-0.473282,-9.762841,-4.089201,-23.565532
98650,55.590209,37.673362,0.232238,-0.047884,7.874529,-0.045802,-0.152672,-0.305344,-9.829466,-2.020533,-19.868082
98750,55.590209,37.673362,-0.385467,0.693121,9.827001,-0.076336,-0.091603,0.015267,-9.307021,-0.511495,-18.802822
98850,55.590209,37.673362,-0.639252,0.227449,10.528502,0.061069,0.106870,0.198473,-8.622659,-0.937129,-20.075439
98950,55.590209,37.673362,-1.771709,0.493206,9.941923,0.152672,0.198473,0.229008,-6.263722,-4.330933,-22.357454
99211,55.590209,37.673362,-0.397438,-0.839168,8.720880,-0.183206,-0.015267,-0.167939,-7.473322,-2.456217,-23.170406
99311,55.590209,37.673362,-1.880645,-0.833182,9.703700,-0.091603,0.076336,-0.473282,-8.628758,-3.433308,-20.197427
99411,55.590209,37.673362,-2.953248,-1.194707,11.680113,0.045802,0.152672,-0.732824,-9.055000,-3.585387,-14.943672
99511,55.590209,37.673362,-2.080561,-0.762553,9.101558,0.137405,0.000000,-0.824427,-8.200913,-4.379991,-7.644763
99611,55.590209,37.673362,-0.596156,-0.306458,7.654263,0.030534,-0.076336,-0.641221,-6.988830,-3.794668,-1.082587
99712,55.590209,37.673362,-0.034716,-0.100556,7.811083,-0.015267,-0.183206,-0.381679,-6.950491,-1.495598,3.334008
99812,55.590209,37.673362,-0.603339,0.433350,9.069236,0.076336,-0.183206,-0.137405,-6.018431,-0.004401,5.616729
99912,55.590209,37.673362,-0.645237,0.386664,10.544065,-0.122137,-0.290076,0.000000,-5.406857,1.423738,5.905416
100012,55.590209,37.673362,-1.407791,0.108936,10.623073,0.091603,0.320611,-0.091603,-4.758128,0.113584,5.924060
100112,55.590209,37.673362,-1.040281,-0.398635,8.173805,-0.030534,0.061069,-0.244275,-4.275765,-2.324508,7.635641
100212,55.590209,37.673362,-0.441730,-0.472855,7.858967,-0.229008,-0.244275,-0.213740,-5.160437,-1.395423,9.551229
100312,55.590209,37.673362,-0.780510,-0.090980,8.567651,-0.244275,-0.152672,-0.412214,-7.262608,0.474071,12.053626
100412,55.590209,37.673362,-1.438915,-0.463278,10.067619,-0.061069,0.000000,-0.687023,-8.135191,1.171716,17.043104
100512,55.590209,37.673362,-2.197877,-1.007959,11.984177,-0.045802,0.213740,-0.778626,-8.508318,0.903898,24.382833
100612,55.590209,37.673362,-1.572990,-0.948104,9.351753,0.015267,0.106870,-0.717557,-8.463516,-0.346206,30.624090
100712,55.590209,37.673362,-0.672771,-0.215478,6.807912,-0.076336,-0.015267,-0.625954,-8.373660,-0.800901,36.651771
100812,55.590209,37.673362,-0.064643,0.110133,7.910442,0.000000,0.015267,-0.458015,-7.936063,0.470278,41.588180
100912,55.590209,37.673362,0.049081,-0.142455,9.124303,0.091603,-0.106870,-0.061069,-6.937970,0.871644,43.728969
101012,55.590209,37.673362,-0.816423,0.994791,11.196485,-0.091603,-0.015267,0.274809,-5.927929,1.534136,42.329589
101156,55.590164,37.673362,-1.592144,1.717840,9.945514,0.061069,0.167939,0.351145,-3.296525,-3.334538,37.933086
101256,55.590164,37.673362,-1.374272,0.238223,7.892486,-0.137405,-0.122137,0.213740,-2.889263,-4.602001,35.337863
101356,55.590164,37.673362,-1.145625,-0.034716,7.721301,-0.198473,-0.244275,0.030534,-4.387197,-3.114084,33.876834
101456,55.590164,37.673362,-1.101333,-0.129287,8.734048,-0.106870,-0.259542,-0.244275,-5.232131,-0.986559,34.448154
101556,55.590164,37.673362,-1.643619,-0.614113,10.579977,-0.106870,-0.106870,-0.534351,-5.839715,-0.153803,38.217357
101656,55.590164,37.673362,-1.045069,-0.369904,11.091140,0.000000,0.045802,-0.473282,-5.600598,-0.364004,42.734531
101756,55.590164,37.673362,-0.675165,-0.290895,8.523359,0.061069,0.152672,-0.351145,-5.269784,-0.915169,46.452953
101856,55.590164,37.673362,-0.217872,-0.216675,7.013814,0.000000,-0.061069,-0.229008,-4.993335,-1.074197,49.328262
101956,55.590164,37.673362,0.132878,0.192733,8.469489,-0.213740,-0.244275,-0.030534,-5.852121,0.395381,50.563400
102056,55.590164,37.673362,-0.702698,1.010353,9.825804,-0.152672,-0.167939,0.305344,-6.674642,1.859362,48.800193
102156,55.590164,37.673362,-0.991199,1.541866,12.525267,-0.137405,0.229008,0.442748,-6.365171,1.481854,45.087635
102256,55.590164,37.673362,-1.229423,0.526724,8.823831,-0.015267,0.167939,0.412214,-6.334482,-1.452626,41.011367
102356,55.590164,37.673362,-1.109712,-0.782904,7.856573,0.045802,0.213740,0.122137,-5.787115,-4.205820,38.904270
102456,55.590164,37.673362,-0.580594,-0.626084,7.890092,-0.167939,-0.167939,-0.061069,-6.068630,-4.688157,38.441909
102556,55.590164,37.673362,-1.149217,-0.684742,9.616312,-0.305344,-0.229008,-0.320611,-8.429576,-2.242564,39.834327
102656,55.590164,37.673362,-1.841141,-0.492008,13.314156,-0.106870,0.213740,-0.381679,-9.683904,-1.830946,42.882827
102756,55.590164,37.673362,-2.218228,-0.937330,10.469844,0.015267,0.106870,-0.290076,-9.717243,-3.577191,46.104412
102856,55.590164,37.673362,-1.398214,0.111330,7.310695,0.106870,0.000000,-0.320611,-8.247469,-4.592350,48.799972
103156,55.590164,37.673339,-0.405817,1.968034,10.134656,-0.167939,-0.122137,0.259542,-5.659002,-0.881805,50.521862
103256,55.590164,37.673339,-0.948104,1.493982,10.617088,0.045802,0.229008,0.412214,-5.110316,-2.589860,47.385169
103356,55.590164,37.673339,-1.558625,1.547851,9.873688,-0.030534,0.259542,0.335878,-3.136843,-5.749105,43.640693
103456,55.590164,37.673339,-0.624887,-0.092177,7.107188,-0.167939,-0.198473,0.183206,-3.538297,-5.572032,41.192878
103556,55.590164,37.673339,-0.691924,-0.221464,8.037336,-0.213740,-0.091603,0.106870,-4.890417,-4.655162,39.347167
103656,55.590164,37.673339,-2.031480,-0.144849,10.222044,-0.229008,-0.061069,-0.198473,-6.703905,-3.971858,39.436191
103756,55.590164,37.673339,-2.541445,-1.095347,12.627020,-0.061069,0.259542,-0.412214,-7.885878,-4.613174,42.395217
103856,55.590164,37.673339,-1.608903,-1.318008,9.417593,-0.015267,0.152672,-0.396947,-8.671697,-6.864593,46.545307
103956,55.590164,37.673339,-0.717063,-0.059855,6.640318,-0.015267,-0.152672,-0.335878,-8.289600,-6.997438,49.807147
104056,55.590164,37.673339,0.442927,-0.079009,7.635109,0.045802,-0.183206,-0.213740,-8.112332,-3.896428,51.855854
104156,55.590164,37.673339,0.526724,0.733823,8.997410,-0.045802,-0.213740,0.061069,-7.205296,-2.212113,52.441791
104256,55.590164,37.673339,0.222661,0.980426,9.961076,-0.015267,-0.183206,0.458015,-6.432292,-0.991141,49.831466
104356,55.590164,37.673339,-1.425747,1.495179,11.524491,-0.137405,0.167939,0.656488,-5.474717,-1.905950,44.087478
104456,55.590164,37.673339,-1.485602,0.487220,8.354567,-0.091603,0.167939,0.412214,-5.904277,-4.583057,38.831382
104556,55.590164,37.673339,-0.477643,-0.872686,7.012617,0.061069,0.045802,0.137405,-5.494203,-5.426710,36.311870
104656,55.590164,37.673339,-1.063026,-0.530316,8.686164,-0.274809,-0.183206,-0.229008,-6.283534,-5.080620,36.541839
104756,55.590164,37.673339,-1.382651,-0.669179,10.204088,-0.229008,-0.167939,-0.427481,-9.282974,-2.821791,39.381515
104856,55.590164,37.673339,-2.370260,-0.396240,12.483368,0.015267,0.396947,-0.549618,-9.779598,-3.784446,43.669315
104956,55.590164,37.673339,-1.532289,-1.200692,9.227253,0.106870,0.091603,-0.549618,-9.654417,-5.347437,49.189361
105076,55.590164,37.673339,0.906205,0.132878,6.521805,0.015267,-0.106870,-0.412214,-8.844124,-3.920738,55.273101
105176,55.590164,37.673339,1.112107,0.657208,8.391677,0.106870,-0.030534,-0.183206,-7.460052,-2.942350,57.760978
105276,55.590164,37.673339,-0.286107,1.237802,10.278308,-0.137405,-0.259542,0.305344,-6.606309,-0.937017,56.953929
105376,55.590164,37.673339,-1.049857,1.515530,11.395203,-0.152672,-0.061069,0.687023,-6.870137,0.404254,52.008544
105476,55.590164,37.673339,-1.420959,1.495179,9.976639,0.015267,0.381679,0.641221,-6.188541,-3.040390,45.901134
105576,55.590164,37.673339,-0.621295,0.062249,6.738481,0.030534,0.091603,0.458015,-4.680210,-6.161067,41.178375
105676,55.590164,37.673339,-0.606930,-0.258574,7.685388,-0.106870,0.045802,0.274809,-4.298529,-7.153399,37.637432
105776,55.590164,37.673339,-1.863886,-0.373495,10.008960,-0.305344,-0.290076,-0.152672,-5.954891,-6.001834,36.618309
105876,55.590164,37.673339,-1.904587,-0.995988,11.372459,-0.244275,-0.152672,-0.442748,-8.168058,-4.450711,39.145221
105976,55.590164,37.673339,-1.826776,-1.025915,11.233594,-0.030534,0.244275,-0.473282,-9.159563,-4.587479,43.140804
106076,55.590164,37.673339,-0.966060,-0.799663,7.012617,0.076336,0.061069,-0.412214,-8.896431,-6.819907,47.760143
106176,55.590164,37.673339,0.324414,0.310049,6.497863,0.106870,-0.244275,-0.351145,-8.075814,-4.276242,50.898632
106276,55.590164,37.673339,0.448913,0.871489,8.190565,0.015267,-0.229008,-0.106870,-6.520124,-1.689772,53.149650
106376,55.590164,37.673339,-0.599748,1.696292,10.125080,-0.015267,-0.106870,0.320611,-5.468791,-0.803623,51.891174
106476,55.590164,37.673339,-1.564611,2.078167,11.546038,0.030534,0.244275,0.488550,-4.171151,-1.888733,47.611568
106576,55.590164,37.673339,-1.168370,1.850718,9.563639,0.015267,0.381679,0.335878,-2.289283,-5.529277,43.881523
106676,55.590164,37.673339,-0.371101,0.453701,7.229292,-0.229008,-0.167939,0.244275,-2.078293,-6.734266,41.142887
106776,55.590164,37.673339,-0.468066,0.314838,8.382101,-0.305344,-0.198473,0.106870,-3.983855,-4.790704,38.816101
106876,55.590164,37.673339,-1.505953,-0.129287,10.283097,-0.198473,-0.122137,-0.122137,-5.699353,-3.548603,38.442642
106978,55.590164,37.673339,-2.261323,-0.869095,12.082340,-0.106870,0.274809,-0.335878,-7.311987,-4.225023,40.515167
107139,55.590160,37.673274,-0.699107,-1.040281,7.275979,0.061069,0.030534,-0.335878,-7.636003,-7.056827,46.555732
107239,55.590160,37.673274,0.136470,-0.071826,6.773197,0.000000,-0.137405,-0.213740,-7.627467,-5.162272,49.011093
107339,55.590160,37.673274,0.055067,0.495600,8.440758,-0.045802,-0.137405,0.076336,-7.443575,-3.605118,49.880466
107439,55.590160,37.673274,-0.041899,1.440112,10.321404,-0.137405,-0.137405,0.549618,-7.005512,-3.046791,46.695007
107539,55.590160,37.673274,-1.598130,1.559822,11.830948,-0.106870,0.381679,0.625954,-6.334130,-4.635258,40.561344
107639,55.590160,37.673274,-1.991976,0.873884,8.453927,-0.015267,0.213740,0.427481,-5.332066,-9.035284,35.762878
107739,55.590160,37.673274,-0.849942,-0.011971,7.581240,-0.167939,-0.274809,0.167939,-5.084736,-8.161450,32.761299
107839,55.590160,37.673274,-1.224634,0.092177,8.493431,-0.183206,-0.122137,-0.076336,-6.111702,-6.715976,31.610837
107939,55.590160,37.673274,-2.172738,-0.470461,9.898827,-0.152672,-0.229008,-0.366412,-7.537096,-5.105740,33.281898
108039,55.590160,37.673274,-1.693898,-0.483629,12.012907,-0.076336,0.106870,-0.488550,-8.741434,-3.609541,37.189395
108139,55.590160,37.673274,-1.423353,-0.712275,9.970653,0.061069,0.290076,-0.412214,-8.493345,-5.902304,41.700141
108239,55.590160,37.673274,-0.422577,0.538695,7.017405,-0.091603,-0.152672,-0.259542,-7.974450,-6.105271,44.543842
108339,55.590160,37.673274,0.964863,0.020351,7.184999,-0.015267,-0.137405,0.030534,-8.265184,-3.620755,45.329261
108439,55.590160,37.673274,0.149638,0.432153,9.925164,-0.061069,-0.030534,0.305344,-7.503421,-2.942530,43.503902
108539,55.590160,37.673274,-0.621295,1.127669,10.116700,0.015267,-0.183206,0.473282,-6.594912,-2.747422,39.857578
108639,55.590160,37.673274,-1.013944,0.785298,10.709264,0.015267,0.213740,0.503817,-5.145655,-3.890707,35.168750
108739,55.590160,37.673274,-1.118092,0.548272,8.579622,0.015267,0.244275,0.274809,-3.738759,-7.105316,31.611824
108839,55.590160,37.673274,-0.541090,-0.653617,7.629124,-0.229008,-0.167939,0.152672,-4.660869,-6.710676,29.511476
108939,55.590160,37.673274,-1.238999,-0.319626,8.321048,-0.229008,-0.152672,-0.137405,-6.640518,-5.490970,28.974992
109046,55.590160,37.673274,-1.483208,-0.379481,10.433932,-0.122137,-0.137405,-0.442748,-7.763546,-4.151461,31.725059
109150,55.590160,37.673240,-1.995567,-0.424971,11.287465,-0.106870,0.198473,-0.488550,-8.489149,-4.994095,35.888401
109250,55.590160,37.673240,-1.546654,-0.748188,9.367315,0.091603,0.152672,-0.320611,-8.611047,-6.283817,39.643005
109350,55.590160,37.673240,0.390255,0.144849,6.748057,0.000000,-0.229008,-0.229008,-7.945565,-4.856446,42.178207
109450,55.590160,37.673240,1.142034,0.544681,8.112753,-0.106870,-0.091603,-0.122137,-7.569540,-2.744790,43.858051
109550,55.590160,37.673240,0.086191,0.669179,9.659407,-0.030534,-0.061069,0.305344,-7.406684,-1.805537,42.846660
109650,55.590160,37.673240,-1.393425,1.367089,12.281058,-0.076336,-0.015267,0.625954,-6.404700,-1.454259,38.132976
109750,55.590160,37.673240,-1.119289,1.048660,10.098743,-0.076336,0.213740,0.427481,-6.174837,-3.712990,33.845573
109850,55.590160,37.673240,-0.325611,0.195127,7.258022,-0.076336,0.045802,0.213740,-5.523226,-6.260283,30.883562
109950,55.590160,37.673240,-0.062249,-0.549469,7.546524,-0.213740,-0.106870,0.137405,-6.658034,-5.309640,28.872304
110050,55.590160,37.673240,-1.898602,-0.539892,8.888474,-0.198473,-0.167939,-0.152672,-8.437879,-4.179540,28.846357
110150,55.590160,37.673240,-1.908179,-0.679953,10.377668,-0.167939,-0.198473,-0.564885,-9.495500,-2.789612,32.336551
110251,55.590160,37.673240,-1.939303,-0.866701,10.989386,0.030534,0.290076,-0.625954,-9.500252,-4.261154,37.855060
110351,55.590160,37.673240,-0.924162,-0.648829,9.285912,-0.030534,0.122137,-0.427481,-9.393729,-5.306776,42.929737
110451,55.590160,37.673240,-0.049081,-0.191536,6.825869,0.045802,-0.122137,-0.229008,-9.433138,-4.350249,45.876358
110551,55.590160,37.673240,0.186748,0.033519,7.858967,0.061069,-0.259542,-0.106870,-8.287658,-2.330533,47.448886
110651,55.590160,37.673240,-0.465672,0.497994,10.333375,0.030534,-0.045802,0.106870,-7.104820,-0.965438,47.372638
110751,55.590160,37.673240,-1.430536,0.496797,12.315774,0.000000,-0.076336,0.274809,-5.384416,-0.152037,45.105903
110851,55.590160,37.673240,-0.945710,0.186748,9.586384,-0.061069,0.183206,0.167939,-5.571025,-1.714099,43.231178
111055,55.590156,37.673217,0.026336,-0.080206,6.991069,-0.106870,-0.167939,-0.122137,-5.961498,-4.391364,43.245201
111155,55.590156,37.673217,-0.858321,-0.130484,9.545682,-0.183206,-0.167939,-0.290076,-7.074515,-2.101342,44.841712
111255,55.590156,37.673217,-1.642422,-0.271742,11.662157,-0.137405,-0.015267,-0.290076,-7.782593,-1.926505,47.607231
111355,55.590156,37.673217,-1.199495,-0.525527,10.121488,0.030534,0.000000,-0.229008,-7.525673,-2.162235,49.806987
111455,55.590156,37.673217,-0.840365,-0.165200,8.717288,0.030534,0.290076,-0.137405,-6.611932,-4.412825,51.528297
111555,55.590156,37.673217,-0.154426,-0.116119,7.097611,-0.015267,-0.198473,-0.045802,-6.370721,-4.107254,52.193180
111655,55.590156,37.673217,0.357933,-0.074220,8.558074,-0.045802,-0.152672,0.061069,-6.218189,-2.130263,51.807113
111755,55.590156,37.673217,-0.192733,0.417788,9.548077,0.045802,-0.076336,0.213740,-5.463836,-1.327110,50.419578
111855,55.590156,37.673217,-2.002750,1.405396,12.099099,-0.106870,0.335878,0.137405,-4.705412,-2.568763,48.409339
111955,55.590156,37.673217,-1.744176,1.005565,9.781512,0.015267,0.198473,0.122137,-4.018857,-5.294381,47.220016
112055,55.590156,37.673217,-0.839168,0.998382,7.411252,-0.030534,-0.061069,-0.015267,-3.304133,-6.778863,47.004348
112155,55.590156,37.673217,-0.205901,0.598550,8.219295,-0.167939,-0.106870,-0.015267,-3.744011,-5.463068,47.040229
112256,55.590156,37.673217,-1.155202,0.843956,9.762358,-0.259542,-0.076336,-0.167939,-5.053247,-4.522525,47.358074
112356,55.590156,37.673217,-1.473631,0.027533,10.569204,-0.152672,-0.061069,-0.229008,-6.443490,-4.061956,49.067958
112456,55.590156,37.673217,-1.833959,-0.260968,9.759963,0.015267,0.091603,-0.198473,-6.475586,-5.886732,50.955341
112556,55.590156,37.673217,-1.394622,-0.234632,8.947133,0.045802,0.076336,-0.152672,-5.866002,-6.510895,52.450218
112656,55.590156,37.673217,-0.432153,-0.050278,7.414843,0.000000,-0.259542,-0.061069,-5.412028,-5.240840,53.343425
112756,55.590156,37.673217,0.190339,0.084994,8.641872,-0.137405,-0.198473,0.015267,-5.756382,-2.799986,53.052539
112856,55.590156,37.673217,-0.709881,0.314838,9.848549,-0.045802,0.000000,0.137405,-6.070009,-2.087996,52.108844
113156,55.590164,37.673194,-0.908600,0.918176,7.898471,-0.076336,0.030534,0.030534,-4.192485,-5.533521,48.162090
113256,55.590164,37.673194,-0.202310,0.509965,8.153454,-0.198473,-0.106870,0.000000,-4.920621,-4.532148,47.778018
113356,55.590164,37.673194,-0.314838,0.543484,9.160216,-0.167939,-0.122137,-0.106870,-5.994201,-3.272599,47.919605
113456,55.590164,37.673194,-0.999579,0.450110,10.359711,-0.122137,-0.106870,-0.244275,-6.380959,-2.872778,49.401180
113556,55.590164,37.673194,-1.696292,-0.342371,10.171767,0.015267,0.183206,-0.274809,-6.719372,-4.059588,51.634521
113656,55.590164,37.673194,-0.978031,-0.403423,9.339781,0.106870,0.106870,-0.229008,-5.888975,-4.825113,54.189083
113756,55.590164,37.673194,-0.219069,0.008380,7.047333,-0.030534,-0.229008,-0.183206,-5.460433,-4.368551,56.171848
113856,55.590164,37.673194,0.245406,0.140061,7.959524,-0.030534,-0.183206,-0.091603,-5.357179,-2.218562,57.125709
113956,55.590164,37.673194,0.329203,0.511162,9.615115,0.045802,-0.030534,0.091603,-4.769977,-0.578454,57.110813
114056,55.590164,37.673194,-0.374693,0.984017,10.024523,0.015267,-0.076336,0.274809,-3.723376,-0.886978,55.433010
114156,55.590164,37.673194,-1.535880,1.529895,8.996213,0.076336,0.000000,0.213740,-2.298732,-2.137977,52.885105
114256,55.590164,37.673194,-0.987608,1.151611,9.226057,-0.122137,0.198473,0.045802,-1.476344,-3.568446,51.806194
114356,55.590164,37.673194,0.366313,0.506374,7.779958,-0.244275,-0.106870,0.061069,-2.784095,-3.196435,51.233654
114456,55.590164,37.673194,-0.311246,0.767342,9.358935,-0.351145,-0.061069,0.000000,-4.810732,-2.535341,50.395893
114556,55.590164,37.673194,-1.620874,0.389058,9.756372,-0.198473,-0.030534,-0.305344,-6.954832,-2.411885,51.570499
114656,55.590164,37.673194,-1.503559,-0.618901,11.213244,-0.030534,0.244275,-0.351145,-7.801625,-2.655883,54.722312
114756,55.590164,37.673194,-0.872686,-0.809240,8.804677,0.076336,0.045802,-0.229008,-7.436527,-4.324913,57.646835
114856,55.590164,37.673194,-0.272939,0.100556,7.795521,-0.045802,-0.091603,-0.229008,-6.697698,-4.250463,59.657711
115156,55.590164,37.673152,-0.572214,0.802058,10.293870,-0.045802,-0.076336,0.305344,-5.976102,-0.254541,58.198001
115256,55.590164,37.673152,-1.461660,0.775721,9.249999,0.152672,0.137405,0.259542,-4.330441,-2.784887,55.640773
115356,55.590164,37.673152,-1.772906,1.192312,9.461886,-0.015267,0.198473,0.122137,-2.530969,-5.017876,53.796855
115456,55.590164,37.673152,-0.312443,0.110133,7.744045,-0.167939,-0.152672,-0.015267,-3.080903,-4.717979,53.399890
115556,55.590164,37.673152,-0.250194,0.415394,8.457518,-0.229008,-0.122137,-0.122137,-4.320953,-3.437761,53.581523
115656,55.590164,37.673152,-1.508347,0.330400,9.860520,-0.167939,-0.122137,-0.305344,-5.653275,-2.873506,55.275951
115756,55.590164,37.673152,-1.470040,-0.269348,12.336125,-0.091603,0.198473,-0.427481,-6.677589,-1.850407,58.673507
115856,55.590164,37.673152,-1.095347,-1.006762,9.343373,-0.045802,0.106870,-0.396947,-7.379536,-3.781495,62.829963
115956,55.590164,37.673152,-0.792481,-0.331597,7.704541,0.030534,-0.076336,-0.305344,-7.036752,-4.057820,65.854888
116056,55.590164,37.673152,0.378284,0.039504,7.310695,0.000000,-0.259542,-0.183206,-6.685690,-1.634808,67.919509
116156,55.590164,37.673152,1.027112,0.086191,9.017761,0.061069,-0.106870,0.015267,-6.211956,1.071332,68.661056
116256,55.590164,37.673152,0.070629,0.979228,9.840169,-0.061069,-0.122137,0.198473,-4.890328,0.758171,67.568824
116356,55.590164,37.673152,-1.316811,0.834379,10.412384,-0.015267,0.106870,0.229008,-4.393321,-0.122305,65.341346
116456,55.590164,37.673152,-1.780089,1.089362,10.075999,-0.030534,0.259542,0.061069,-3.318789,-2.345035,63.672481
116556,55.590164,37.673152,-0.488417,0.040701,7.259220,-0.152672,-0.183206,-0.045802,-3.819215,-2.924422,63.658535
116656,55.590164,37.673152,0.415394,0.368707,8.134301,-0.183206,-0.106870,-0.030534,-5.213381,-1.348716,63.845577
116756,55.590164,37.673152,-0.503979,0.290895,10.038888,-0.198473,0.015267,-0.229008,-6.633403,-0.524966,65.077369
116856,55.590164,37.673152,-1.019930,-0.390255,11.749546,-0.076336,0.106870,-0.305344,-7.273948,-0.200232,67.578514
117056,55.590152,37.673114,-0.926556,-0.202310,8.197747,-0.045802,-0.030534,-0.244275,-6.579826,-3.455834,73.263900
117156,55.590152,37.673114,0.135272,0.002394,7.416040,-0.030534,-0.091603,-0.167939,-6.768387,-2.307143,74.716217
117256,55.590152,37.673114,0.535104,0.108936,8.566454,-0.045802,-0.137405,-0.030534,-6.532779,-0.919086,75.539741
117356,55.590152,37.673114,-0.083797,0.638055,9.788694,-0.076336,-0.091603,0.183206,-6.071586,-0.402746,74.590820
117456,55.590152,37.673114,-1.054646,0.871489,11.541250,0.000000,0.244275,0.290076,-5.454403,-0.890820,72.097862
117556,55.590152,37.673114,-2.090138,1.510741,10.583569,0.045802,0.183206,0.213740,-3.804721,-3.532652,69.780006
117656,55.590152,37.673114,-0.910994,0.337582,7.303512,-0.122137,-0.183206,-0.015267,-3.669256,-4.476453,69.080528
117756,55.590152,37.673114,0.043096,0.391452,7.897274,-0.183206,-0.091603,0.000000,-4.570809,-2.684004,68.953659
117856,55.590152,37.673114,-0.568623,0.588974,8.684967,-0.244275,-0.106870,-0.152672,-5.923044,-1.866148,69.310417
117956,55.590152,37.673114,-0.713472,0.023942,10.029312,-0.229008,-0.045802,-0.396947,-7.377962,-1.350298,71.627746
118056,55.590152,37.673114,-1.622072,-0.985214,10.466253,0.030534,0.244275,-0.442748,-8.278104,-2.639513,75.612373
118156,55.590152,37.673114,-0.863110,-0.837971,10.107123,0.000000,0.198473,-0.412214,-8.092533,-4.130033,79.956619
118256,55.590152,37.673114,0.592565,0.166397,7.083246,-0.061069,-0.122137,-0.229008,-8.367497,-3.509482,83.056205
118356,55.590152,37.673114,0.574608,0.536301,7.807492,-0.030534,-0.137405,-0.015267,-7.785661,-2.190996,83.867454
118456,55.590152,37.673114,-0.397438,0.508768,9.911995,-0.015267,-0.045802,0.244275,-6.958384,-1.213141,82.494621
118556,55.590152,37.673114,-0.822408,0.843956,11.766304,-0.122137,0.030534,0.564885,-6.802851,-1.060880,78.723289
118656,55.590152,37.673114,-1.683124,0.848744,9.686941,-0.091603,0.167939,0.549618,-6.544557,-4.595810,73.867973
118756,55.590152,37.673114,-1.720234,0.628478,8.104373,-0.106870,0.000000,0.381679,-5.996871,-6.630277,69.412666
