# Инициализация MPU6050...
# MPU6050 OK
# Держите неподвижно. Калибровка гиро... 5 сек
# Держите неподвижно... 4 сек
# Держите неподвижно... 3 сек
# Держите неподвижно... 2 сек
# Держите неподвижно... 1 сек
# Держите неподвижно... 0 сек
# Калибровка гиро завершена.
# DMP готов. Начинайте движение.
# Ожидание фиксации ГНСС...
time_ms,lat,lon,ax,ay,az,gx,gy,gz,roll_deg,pitch_deg,yaw_deg
5398,nan,nan,nan,nan,nan,nan,nan,nan,nan,nan,nan
5500,55.982559,37.413028,nan,nan,nan,nan,nan,nan,nan,nan,nan
5600,55.982559,37.413028,0.205901,-0.912191,9.269152,-0.076336,-0.015267,-0.015267,-2.377998,0.400185,0.085199
5700,55.982559,37.413028,0.207098,-0.924162,9.275137,-0.061069,-0.015267,-0.015267,-3.154489,0.513286,0.118944
5800,55.982559,37.413028,0.214281,-0.921768,9.258378,-0.061069,-0.015267,-0.015267,-3.875059,0.619404,0.146651
5900,55.982559,37.413028,0.217872,-0.907402,9.279926,-0.076336,-0.015267,-0.015267,-4.539896,0.718975,0.182048
6000,55.982559,37.413028,0.208296,-0.918176,9.265561,-0.061069,-0.015267,-0.015267,-5.155552,0.811380,0.210873
6100,55.982559,37.413028,0.214281,-0.908600,9.271547,-0.061069,-0.015267,-0.015267,-5.722523,0.897282,0.246950
6200,55.982559,37.413028,0.222661,-0.919373,9.271547,-0.076336,-0.015267,-0.015267,-6.254930,0.983397,0.283595
6300,55.982559,37.413028,0.205901,-0.925359,9.271547,-0.076336,-0.015267,-0.015267,-6.759038,1.055632,0.319865
6400,55.982559,37.413028,0.211887,-0.918176,9.275137,-0.076336,-0.015267,-0.015267,-7.221302,1.120559,0.348911
6500,55.982559,37.413028,0.210690,-0.908600,9.264364,-0.061069,-0.015267,-0.015267,-7.641595,1.185998,0.385017
6600,55.982559,37.413028,0.211887,-0.924162,9.264364,-0.061069,-0.015267,-0.015267,-8.040872,1.245063,0.427834
6700,55.982559,37.413028,0.219069,-0.910994,9.251195,-0.076336,-0.015267,-0.015267,-8.405318,1.303743,0.463677
6800,55.982559,37.413028,0.209493,-0.909797,9.279926,-0.061069,-0.015267,-0.015267,-8.741345,1.348471,0.498392
6900,55.982559,37.413028,0.222661,-0.915782,9.259575,-0.076336,-0.015267,-0.015267,-9.063922,1.400350,0.533824
7000,55.982559,37.413028,0.210690,-0.913388,9.273941,-0.061069,-0.015267,-0.015267,-9.358053,1.445230,0.568523
7100,55.982559,37.413028,0.223858,-0.908600,9.264364,-0.076336,-0.015267,-0.015267,-9.624855,1.490249,0.603217
7200,55.982559,37.413028,0.219069,-0.913388,9.279926,-0.061069,-0.015267,-0.015267,-9.877143,1.528277,0.637208
7300,55.982559,37.413028,0.210690,-0.913388,9.271547,-0.076336,-0.015267,-0.015267,-10.108408,1.566965,0.678062
7400,55.982559,37.413028,0.216675,-0.910994,9.248802,-0.061069,-0.015267,-0.015267,-10.346727,1.605157,0.712145
7568,55.982559,37.413028,0.214281,-0.920571,9.257182,-0.061069,-0.015267,-0.015267,-10.661981,1.652650,0.768925
7668,55.982559,37.413028,0.202310,-0.910994,9.282320,-0.076336,-0.015267,-0.015267,-10.844580,1.676985,0.801301
7768,55.982559,37.413028,0.215478,-0.910994,9.276335,-0.061069,-0.015267,-0.015267,-11.005511,1.701894,0.840293
7868,55.982559,37.413028,0.210690,-0.908600,9.255984,-0.076336,-0.015267,-0.015267,-11.159593,1.719225,0.871599
7968,55.982559,37.413028,0.209493,-0.919373,9.277532,-0.061069,-0.015267,-0.015267,-11.306679,1.743555,0.903537
8068,55.982559,37.413028,0.213084,-0.918176,9.282320,-0.061069,-0.015267,-0.015267,-11.439829,1.767894,0.935352
8168,55.982559,37.413028,0.208296,-0.913388,9.271547,-0.061069,-0.015267,-0.015267,-11.566038,1.785304,0.966417
8268,55.982559,37.413028,0.216675,-0.909797,9.263167,-0.061069,-0.015267,-0.015267,-11.678208,1.803423,1.004302
8368,55.982559,37.413028,0.215478,-0.912191,9.259575,-0.076336,-0.015267,-0.015267,-11.782838,1.813785,1.034251
8468,55.982559,37.413028,0.217872,-0.913388,9.263167,-0.061069,-0.015267,-0.015267,-11.881192,1.831234,1.065047
8568,55.982559,37.413028,0.214281,-0.914585,9.271547,-0.076336,-0.015267,-0.015267,-11.971739,1.849306,1.102531
8668,55.982559,37.413028,0.208296,-0.909797,9.275137,-0.061069,-0.015267,-0.015267,-12.063161,1.859856,1.132549
8768,55.982559,37.413028,0.210690,-0.916979,9.266758,-0.061069,-0.015267,-0.015267,-12.139926,1.870258,1.162197
8868,55.982559,37.413028,0.217872,-0.910994,9.270349,-0.076336,-0.015267,-0.015267,-12.209611,1.881401,1.198723
8968,55.982559,37.413028,0.226252,-0.918176,9.271547,-0.076336,-0.015267,-0.015267,-12.279370,1.898788,1.229044
9068,55.982559,37.413028,0.211887,-0.906205,9.266758,-0.076336,-0.015267,-0.015267,-12.342085,1.909965,1.265498
9168,55.982559,37.413028,0.204704,-0.918176,9.271547,-0.061069,-0.015267,-0.015267,-12.397957,1.920381,1.294924
9268,55.982559,37.413028,0.209493,-0.919373,9.264364,-0.076336,-0.015267,-0.015267,-12.453870,1.923870,1.323594
9368,55.982559,37.413028,0.209493,-0.919373,9.269152,-0.076336,-0.015267,-0.015267,-12.509659,1.928147,1.359212
9468,55.982559,37.413028,nan,nan,nan,nan,nan,nan,nan,nan,nan
9568,55.982559,37.413028,nan,nan,nan,nan,nan,nan,nan,nan,nan
9668,55.982559,37.413028,0.211887,-0.910994,9.266758,-0.076336,-0.015267,-0.015267,-12.634665,1.953105,1.452976
9768,55.982559,37.413028,0.221464,-0.909797,9.271547,-0.061069,-0.015267,-0.015267,-12.676657,1.956617,1.481490
9868,55.982559,37.413028,0.204704,-0.907402,9.277532,-0.076336,-0.015267,-0.015267,-12.703844,1.960688,1.516527
9968,55.982559,37.413028,0.217872,-0.918176,9.277532,-0.061069,-0.015267,-0.015267,-12.738824,1.971134,1.545745
10068,55.982559,37.413028,0.214281,-0.918176,9.266758,-0.076336,-0.015267,-0.015267,-12.773859,1.974647,1.574189
10168,55.982559,37.413028,0.214281,-0.915782,9.266758,-0.076336,-0.015267,-0.015267,-12.801035,1.978767,1.609213
10268,55.982559,37.413028,0.225055,-0.915782,9.269152,-0.061069,-0.015267,-0.015267,-12.822161,1.982192,1.637521
10368,55.982559,37.413028,0.221464,-0.907402,9.261970,-0.061069,-0.015267,-0.015267,-12.849267,1.993290,1.673318
10468,55.982559,37.413028,0.210690,-0.909797,9.264364,-0.061069,-0.015267,-0.015267,-12.862653,1.996543,1.701245
10568,55.982559,37.413028,0.219069,-0.912191,9.272744,-0.076336,-0.015267,-0.015267,-12.883775,2.000000,1.729559
10668,55.982559,37.413028,0.220267,-0.910994,9.261970,-0.076336,-0.015267,-0.015267,-12.903981,2.004120,1.764494
10768,55.982559,37.413028,0.222661,-0.912191,9.267955,-0.061069,-0.015267,-0.015267,-12.925101,2.007598,1.792812
10868,55.982559,37.413028,0.204704,-0.915782,9.269152,-0.061069,-0.015267,-0.015267,-12.938347,2.011669,1.827677
10968,55.982559,37.413028,0.223858,-0.915782,9.267955,-0.061069,-0.015267,-0.015267,-12.958677,2.015035,1.855651
11068,55.982559,37.413028,0.215478,-0.914585,9.270349,-0.076336,-0.015267,-0.015267,-12.972709,2.019256,1.890861
11168,55.982559,37.413028,0.221464,-0.906205,9.271547,-0.076336,-0.015267,-0.015267,-12.986083,2.022564,1.918770
11268,55.982559,37.413028,0.215478,-0.902614,9.266758,-0.061069,-0.015267,-0.015267,-12.999455,2.025878,1.946674
11368,55.982559,37.413028,0.209493,-0.920571,9.254787,-0.076336,-0.015267,-0.015267,-13.012770,2.023041,1.980726
11468,55.982559,37.413028,0.225055,-0.919373,9.279926,-0.061069,-0.015267,-0.015267,-13.026713,2.034241,2.016739
11577,55.982559,37.413028,0.207098,-0.918176,9.272744,-0.061069,-0.015267,-0.015267,-13.033211,2.030544,2.043784
11677,55.982559,37.413028,0.210690,-0.919373,9.267955,-0.061069,-0.015267,-0.015267,-13.046662,2.026937,2.070879
11777,55.982559,37.413028,0.210690,-0.916979,9.267955,-0.076336,-0.015267,-0.015267,-13.052940,2.030987,2.105658
11877,55.982559,37.413028,0.209493,-0.916979,9.272744,-0.076336,-0.015267,-0.015267,-13.060235,2.027437,2.133090
11977,55.982559,37.413028,0.213084,-0.909797,9.259575,-0.061069,-0.015267,-0.015267,-13.066511,2.031496,2.167868
12077,55.982559,37.413028,0.211887,-0.921768,9.255984,-0.076336,-0.015267,-0.015267,-13.079872,2.034859,2.195748
12177,55.982559,37.413028,0.214281,-0.920571,9.279926,-0.076336,-0.015267,-0.015267,-13.093326,2.031280,2.222823
12277,55.982559,37.413028,0.215478,-0.916979,9.271547,-0.076336,-0.015267,-0.015267,-13.100393,2.035490,2.258011
12377,55.982559,37.413028,0.216675,-0.915782,9.263167,-0.076336,-0.015267,-0.015267,-13.099847,2.038673,2.285788
12477,55.982559,37.413028,0.213084,-0.918176,9.263167,-0.076336,-0.015267,-0.015267,-13.106215,2.035805,2.319755
12577,55.982559,37.413028,0.220267,-0.913388,9.282320,-0.076336,-0.015267,-0.015267,-13.112480,2.039888,2.354516
12677,55.982559,37.413028,0.214281,-0.912191,9.265561,-0.076336,-0.015267,-0.015267,-13.118882,2.043178,2.382332
12777,55.982559,37.413028,0.222661,-0.924162,9.265561,-0.076336,-0.015267,-0.015267,-13.125144,2.047268,2.417087
12877,55.982559,37.413028,0.222661,-0.909797,9.266758,-0.076336,-0.015267,-0.015267,-13.125388,2.050594,2.445311
12977,55.982559,37.413028,0.210690,-0.919373,9.276335,-0.061069,-0.015267,-0.015267,-13.131894,2.046946,2.472323
13077,55.982559,37.413028,0.216675,-0.918176,9.263167,-0.076336,-0.015267,-0.015267,-13.131199,2.050932,2.507035
13177,55.982559,37.413028,0.208296,-0.916979,9.267955,-0.076336,-0.015267,-0.015267,-13.137569,2.048086,2.540982
13277,55.982559,37.413028,0.217872,-0.918176,9.271547,-0.076336,-0.015267,-0.015267,-13.143962,2.051393,2.568786
13377,55.982559,37.413028,0.201113,-0.912191,9.263167,-0.061069,-0.015267,-0.015267,-13.143383,2.048436,2.602689
13534,55.982559,37.413028,nan,nan,nan,nan,nan,nan,nan,nan,nan
13634,55.982559,37.413028,0.209493,-0.915782,9.267955,-0.061069,-0.015267,-0.015267,-13.149836,2.043582,2.677960
13734,55.982559,37.413028,0.214281,-0.918176,9.254787,-0.061069,-0.015267,-0.015267,-13.149276,2.046774,2.705724
13834,55.982559,37.413028,0.207098,-0.919373,9.265561,-0.076336,-0.015267,-0.015267,-13.155651,2.043945,2.739655
13934,55.982559,37.413028,0.225055,-0.914585,9.266758,-0.076336,-0.015267,-0.015267,-13.155089,2.047139,2.767415
14034,55.982559,37.413028,0.211887,-0.921768,9.272744,-0.061069,-0.015267,-0.015267,-13.154657,2.043386,2.794370
14134,55.982559,37.413028,0.207098,-0.912191,9.260772,-0.076336,-0.015267,-0.015267,-13.153952,2.047377,2.829067
14234,55.982559,37.413028,0.210690,-0.914585,9.259575,-0.061069,-0.015267,-0.015267,-13.160472,2.043759,2.856047
14334,55.982559,37.413028,0.216675,-0.922965,9.261970,-0.076336,-0.015267,-0.015267,-13.160842,2.040148,2.883532
14434,55.982559,37.413028,0.209493,-0.906205,9.275137,-0.061069,-0.015267,-0.015267,-13.160134,2.044140,2.918228
14534,55.982559,37.413028,0.219069,-0.908600,9.265561,-0.061069,-0.015267,-0.015267,-13.159566,2.047334,2.945984
14635,55.982559,37.413028,0.220267,-0.918176,9.265561,-0.076336,-0.015267,-0.015267,-13.165948,2.044522,2.979896
14735,55.982559,37.413028,0.217872,-0.916979,9.267955,-0.076336,-0.015267,-0.015267,-13.165523,2.040771,3.006844
14835,55.982559,37.413028,0.213084,-0.902614,9.270349,-0.076336,-0.015267,-0.015267,-13.157861,2.044618,3.041512
14935,55.982559,37.413028,0.216675,-0.907402,9.252393,-0.076336,-0.015267,-0.015267,-13.164388,2.041013,3.068477
15035,55.982559,37.413028,0.213084,-0.915782,9.264364,-0.061069,-0.015267,-0.015267,-13.163818,2.044207,3.096225
15135,55.982559,37.413028,0.220267,-0.914585,9.258378,-0.076336,-0.015267,-0.015267,-13.163103,2.048199,3.130907
15235,55.982559,37.413028,0.220267,-0.910994,9.275137,-0.061069,-0.015267,-0.015267,-13.163328,2.051536,3.159235
15335,55.982559,37.413028,0.215478,-0.907402,9.276335,-0.076336,-0.015267,-0.015267,-13.162762,2.048581,3.193116
15435,55.982559,37.413028,0.210690,-0.919373,9.266758,-0.061069,-0.015267,-0.015267,-13.162199,2.045627,3.226994
15604,55.982559,37.413028,nan,nan,nan,nan,nan,nan,nan,nan,nan
15704,55.982559,37.413028,0.209493,-0.913388,9.261970,-0.076336,-0.015267,-0.015267,-13.167724,2.047623,3.302493
15804,55.982559,37.413028,0.213084,-0.921768,9.271547,-0.061069,-0.015267,-0.015267,-13.167163,2.044670,3.336364
15904,55.982559,37.413028,0.214281,-0.910994,9.267955,-0.061069,-0.015267,-0.015267,-13.166584,2.047863,3.364100
16004,55.982559,37.413028,0.208296,-0.910994,9.261970,-0.076336,-0.015267,-0.015267,-13.166825,2.045054,3.398593
16104,55.982559,37.413028,0.217872,-0.915782,9.263167,-0.076336,-0.015267,-0.015267,-13.173362,2.041471,3.425534
16204,55.982559,37.413028,0.210690,-0.916979,9.248802,-0.061069,-0.015267,-0.015267,-13.172636,2.045464,3.460204
16304,55.982559,37.413028,0.205901,-0.913388,9.261970,-0.061069,-0.015267,-0.015267,-13.172227,2.041713,3.487134
16404,55.982559,37.413028,0.215478,-0.913388,9.254787,-0.061069,-0.015267,-0.015267,-13.171644,2.044907,3.514867
16504,55.982559,37.413028,0.215478,-0.914585,9.273941,-0.076336,-0.015267,-0.015267,-13.171090,2.041954,3.548726
16604,55.982559,37.413028,0.215478,-0.899023,9.259575,-0.061069,-0.015267,-0.015267,-13.163557,2.044967,3.576454
16704,55.982559,37.413028,0.219069,-0.912191,9.269152,-0.061069,-0.015267,-0.015267,-13.169772,2.049138,3.611114
16804,55.982559,37.413028,0.213084,-0.901417,9.261970,-0.076336,-0.015267,-0.015267,-13.163034,2.052294,3.639510
16904,55.982559,37.413028,0.225055,-0.908600,9.266758,-0.076336,-0.015267,-0.015267,-13.162482,2.049338,3.673368
17004,55.982559,37.413028,0.211887,-0.910994,9.264364,-0.061069,-0.015267,-0.015267,-13.162078,2.045583,3.700291
17104,55.982559,37.413028,0.220267,-0.915782,9.265561,-0.061069,-0.015267,-0.015267,-13.161340,2.049571,3.734947
17204,55.982559,37.413028,0.208296,-0.914585,9.267955,-0.061069,-0.015267,-0.015267,-13.160940,2.045816,3.761867
17304,55.982559,37.413028,0.210690,-0.918176,9.260772,-0.076336,-0.015267,-0.015267,-13.167149,2.049995,3.796513
17404,55.982559,37.413028,0.204704,-0.910994,9.266758,-0.061069,-0.015267,-0.015267,-13.166601,2.047039,3.830357
17569,55.982559,37.413028,nan,nan,nan,nan,nan,nan,nan,nan,nan
17669,55.982559,37.413028,0.209493,-0.915782,9.255984,-0.061069,-0.015267,-0.015267,-13.173110,2.042273,3.905673
17769,55.982559,37.413028,0.215478,-0.914585,9.259575,-0.076336,-0.015267,-0.015267,-13.172513,2.045464,3.933387
17869,55.982559,37.413028,0.205901,-0.912191,9.278729,-0.076336,-0.015267,-0.015267,-13.171973,2.042510,3.967226
17969,55.982559,37.413028,0.214281,-0.905008,9.264364,-0.061069,-0.015267,-0.015267,-13.171582,2.038756,3.994134
18069,55.982559,37.413028,0.213084,-0.912191,9.273941,-0.076336,-0.015267,-0.015267,-13.170834,2.042745,4.028770
18169,55.982559,37.413028,0.210690,-0.908600,9.271547,-0.076336,-0.015267,-0.015267,-13.164086,2.045876,4.057239
18269,55.982559,37.413028,0.219069,-0.910994,9.261970,-0.076336,-0.015267,-0.015267,-13.170283,2.050073,4.091860
18369,55.982559,37.413028,0.219069,-0.908600,9.259575,-0.076336,-0.015267,-0.015267,-13.169896,2.046319,4.118764
18469,55.982559,37.413028,0.207098,-0.921768,9.264364,-0.061069,-0.015267,-0.015267,-13.169357,2.043362,4.152594
18569,55.982559,37.413028,0.213084,-0.905008,9.271547,-0.076336,-0.015267,-0.015267,-13.161807,2.046335,4.180317
18669,55.982559,37.413028,0.215478,-0.905008,9.257182,-0.061069,-0.015267,-0.015267,-13.161271,2.043375,4.214141
18769,55.982559,37.413028,0.215478,-0.913388,9.271547,-0.061069,-0.015267,-0.015267,-13.160667,2.046562,4.241842
18869,55.982559,37.413028,0.214281,-0.912191,9.283517,-0.061069,-0.015267,-0.015267,-13.160706,2.050697,4.277249
18969,55.982559,37.413028,0.217872,-0.910994,9.279926,-0.061069,-0.015267,-0.015267,-13.160324,2.046940,4.304147
19069,55.982559,37.413028,0.210690,-0.918176,9.272744,-0.076336,-0.015267,-0.015267,-13.159564,2.050923,4.338770
19169,55.982559,37.413028,0.214281,-0.920571,9.255984,-0.061069,-0.015267,-0.015267,-13.165979,2.048191,4.372560
19269,55.982559,37.413028,0.216675,-0.906205,9.263167,-0.061069,-0.015267,-0.015267,-13.158421,2.051148,4.400279
19369,55.982559,37.413028,0.209493,-0.913388,9.277532,-0.076336,-0.015267,-0.015267,-13.158041,2.047390,4.427168
19469,55.982559,37.413028,nan,nan,nan,nan,nan,nan,nan,nan,nan
19569,55.982559,37.413028,nan,nan,nan,nan,nan,nan,nan,nan,nan
19670,55.982559,37.413028,0.213084,-0.913388,9.260772,-0.015267,0.000000,-0.015267,-11.879292,1.935900,4.442500
19770,55.982559,37.413028,0.205901,-0.914585,9.269152,-0.015267,0.000000,0.000000,-11.430871,1.885661,4.442301
19870,55.982559,37.413028,0.216675,-0.916979,9.263167,-0.015267,0.000000,-0.015267,-11.023974,1.843691,4.442675
19970,55.982559,37.413028,0.219069,-0.901417,9.272744,-0.015267,0.000000,-0.015267,-10.638402,1.809432,4.444444
20070,55.982559,37.413028,0.214281,-0.915782,9.265561,-0.015267,0.000000,0.000000,-10.287796,1.775675,4.439151
20170,55.982559,37.413028,0.219069,-0.916979,9.261970,-0.015267,-0.015267,-0.015267,-9.965554,1.743590,4.441534
20270,55.982559,37.413028,0.208296,-0.916979,9.271547,-0.015267,0.000000,-0.015267,-9.657012,1.718887,4.444466
20370,55.982559,37.413028,0.214281,-0.908600,9.261970,-0.015267,0.000000,-0.015267,-9.377181,1.688270,4.447560
20470,55.982559,37.413028,0.208296,-0.907402,9.271547,-0.015267,0.000000,0.000000,-9.111411,1.657538,4.443694
20570,55.982559,37.413028,0.222661,-0.909797,9.259575,-0.015267,0.000000,-0.015267,-8.866190,1.635035,4.447302
20670,55.982559,37.413028,0.216675,-0.919373,9.255984,-0.015267,-0.015267,-0.015267,-8.642423,1.613356,4.451694
20770,55.982559,37.413028,0.208296,-0.915782,9.259575,-0.015267,-0.015267,0.000000,-8.432203,1.591511,4.448303
20870,55.982559,37.413028,0.216675,-0.918176,9.265561,-0.015267,0.000000,0.000000,-8.243425,1.570526,4.445715
20970,55.982559,37.413028,0.207098,-0.921768,9.266758,-0.015267,0.000000,-0.015267,-8.061624,1.549782,4.443122
21070,55.982559,37.413028,0.211887,-0.907402,9.270349,-0.015267,0.000000,0.000000,-7.894145,1.530124,4.448296
21170,55.982559,37.413028,0.214281,-0.919373,9.281124,0.000000,0.000000,-0.015267,-7.733020,1.517084,4.446180
21270,55.982559,37.413028,0.219069,-0.909797,9.269152,-0.015267,0.000000,-0.015267,-7.586210,1.505116,4.451821
21370,55.982559,37.413028,0.211887,-0.921768,9.266758,-0.015267,0.000000,-0.015267,-7.460236,1.486356,4.449233
21470,55.982559,37.413028,nan,nan,nan,nan,nan,nan,nan,nan,nan
21570,55.982559,37.413028,nan,nan,nan,nan,nan,nan,nan,nan,nan
21670,55.982559,37.413028,0.213084,-0.921768,9.278729,-0.015267,0.000000,0.000000,-7.110830,1.452322,4.445290
21770,55.982559,37.413028,0.209493,-0.906205,9.259575,0.000000,-0.015267,-0.015267,-7.012865,1.442077,4.450935
21870,55.982559,37.413028,0.215478,-0.915782,9.271547,-0.015267,0.000000,-0.015267,-6.915169,1.438479,4.450863
21970,55.982559,37.413028,0.209493,-0.910994,9.261970,0.000000,0.000000,0.000000,-6.831522,1.421336,4.449138
22070,55.982559,37.413028,0.213084,-0.914585,9.260772,-0.015267,0.000000,0.000000,-6.754242,1.418811,4.455214
22170,55.982559,37.413028,0.220267,-0.912191,9.276335,-0.015267,0.000000,-0.015267,-6.684710,1.409254,4.454740
22270,55.982559,37.413028,0.208296,-0.909797,9.260772,-0.015267,0.000000,-0.015267,-6.607791,1.399336,4.453443
22370,55.982559,37.413028,0.213084,-0.912191,9.265561,-0.015267,0.000000,0.000000,-6.544478,1.397307,4.459520
22470,55.982559,37.413028,0.209493,-0.913388,9.269152,-0.015267,0.000000,-0.015267,-6.481920,1.387999,4.459054
22571,55.982559,37.413028,0.220267,-0.912191,9.260772,-0.015267,0.000000,-0.015267,-6.425981,1.386316,4.465951
22671,55.982559,37.413028,0.216675,-0.919373,9.271547,-0.015267,0.000000,0.000000,-6.376992,1.377422,4.464685
22771,55.982559,37.413028,0.210690,-0.908600,9.279926,-0.015267,0.000000,-0.015267,-6.328390,1.368626,4.464241
22871,55.982559,37.413028,0.207098,-0.903811,9.265561,-0.015267,-0.015267,-0.015267,-6.286126,1.366969,4.463373
22971,55.982559,37.413028,0.220267,-0.919373,9.271547,-0.015267,0.000000,-0.015267,-6.244146,1.365788,4.470280
23071,55.982559,37.413028,0.210690,-0.914585,9.272744,-0.015267,0.000000,-0.015267,-6.209504,1.357507,4.469855
23171,55.982559,37.413028,0.210690,-0.915782,9.254787,-0.015267,0.000000,0.000000,-6.174860,1.349226,4.469433
23271,55.982559,37.413028,0.226252,-0.916979,9.269152,-0.015267,0.000000,-0.015267,-6.139583,1.347827,4.468570
23371,55.982559,37.413028,0.220267,-0.915782,9.273941,-0.015267,0.000000,0.000000,-6.049090,1.337459,4.468078
23612,55.982559,37.413028,0.219069,-0.914585,9.284714,-0.015267,0.000000,0.000000,-6.042109,1.337198,4.468068
23712,55.982559,37.413028,0.211887,-0.921768,9.275137,0.000000,0.000000,0.000000,-6.020705,1.336684,4.474180
23812,55.982559,37.413028,0.213084,-0.919373,9.265561,-0.015267,0.000000,-0.015267,-5.999763,1.335901,4.474152
23912,55.982559,37.413028,0.216675,-0.913388,9.265561,-0.015267,0.000000,0.000000,-5.978819,1.335117,4.474122
24012,55.982559,37.413028,0.205901,-0.919373,9.266758,-0.015267,-0.015267,-0.015267,-5.965117,1.327615,4.473736
24112,55.982559,37.413028,0.203507,-0.919373,9.272744,-0.015267,-0.015267,-0.015267,-5.944078,1.327190,4.480666
24212,55.982559,37.413028,0.210690,-0.916979,9.276335,-0.015267,0.000000,0.000000,-5.930115,1.326666,4.480647
24312,55.982559,37.413028,0.220267,-0.909797,9.279926,-0.015267,0.000000,-0.015267,-5.916058,1.326500,4.487586
24412,55.982559,37.413028,0.219069,-0.919373,9.269152,-0.015267,-0.015267,-0.015267,-5.902095,1.325975,4.487567
24512,55.982559,37.413028,0.215478,-0.914585,9.272744,-0.015267,0.000000,-0.015267,-5.887775,1.325356,4.486724
24612,55.982559,37.413028,0.217872,-0.916979,9.266758,-0.015267,0.000000,-0.015267,-5.880699,1.325449,4.493672
24712,55.982559,37.413028,0.211887,-0.909797,9.283517,-0.015267,0.000000,0.000000,-5.866736,1.324923,4.493652
24812,55.982559,37.413028,0.213084,-0.913388,9.264364,-0.015267,0.000000,-0.015267,-5.859754,1.324661,4.493641
24912,55.982559,37.413028,0.209493,-0.910994,9.264364,-0.015267,0.000000,-0.015267,-5.846054,1.317155,4.493262
25012,55.982559,37.413028,0.202310,-0.912191,9.258378,-0.015267,0.000000,-0.015267,-5.839242,1.310265,4.499853
25112,55.982559,37.413028,0.209493,-0.912191,9.267955,-0.015267,0.000000,-0.015267,-5.832261,1.310002,4.499843
25212,55.982559,37.413028,0.210690,-0.915782,9.257182,-0.015267,0.000000,0.000000,-5.825279,1.309739,4.499834
25312,55.982559,37.413028,0.216675,-0.920571,9.266758,-0.015267,-0.015267,-0.015267,-5.817940,1.316807,4.507140
25414,55.982559,37.413028,nan,nan,nan,nan,nan,nan,nan,nan,nan
25515,55.982559,37.413028,nan,nan,nan,nan,nan,nan,nan,nan,nan
25615,55.982559,37.413028,0.207098,-0.916979,9.263167,-0.015267,0.000000,0.000000,-5.796995,1.316015,4.507108
25715,55.982559,37.413028,0.220267,-0.919373,9.271547,-0.015267,0.000000,0.000000,-5.796995,1.316015,4.507108
25815,55.982559,37.413028,0.216675,-0.914585,9.269152,-0.015267,0.000000,0.000000,-5.790013,1.315752,4.507098
25915,55.982559,37.413028,0.221464,-0.910994,9.260772,-0.015267,0.000000,0.000000,-5.782767,1.322468,4.507442
26015,55.982559,37.413028,0.211887,-0.918176,9.258378,-0.015267,0.000000,-0.015267,-5.776050,1.315224,4.507078
26115,55.982559,37.413028,0.211887,-0.913388,9.257182,-0.015267,0.000000,-0.015267,-5.775691,1.322553,4.514391
26215,55.982559,37.413028,0.219069,-0.910994,9.265561,-0.015267,0.000000,-0.015267,-5.768974,1.315309,4.514027
26315,55.982559,37.413028,0.216675,-0.900220,9.270349,-0.015267,0.000000,-0.015267,-5.761991,1.315044,4.514016
26415,55.982559,37.413028,0.210690,-0.918176,9.267955,-0.015267,0.000000,0.000000,-5.755010,1.314780,4.514005
26515,55.982559,37.413028,0.205901,-0.913388,9.263167,-0.015267,0.000000,-0.015267,-5.755181,1.308148,4.520612
26615,55.982559,37.413028,0.211887,-0.912191,9.275137,-0.015267,0.000000,0.000000,-5.747934,1.314863,4.520954
26715,55.982559,37.413028,0.225055,-0.912191,9.261970,-0.015267,0.000000,0.000000,-5.747934,1.314863,4.520954
26815,55.982559,37.413028,0.215478,-0.920571,9.263167,-0.015267,0.000000,0.000000,-5.747670,1.321843,4.521306
26915,55.982559,37.413028,0.211887,-0.921768,9.263167,-0.015267,0.000000,0.000000,-5.747934,1.314863,4.520954
27015,55.982559,37.413028,0.207098,-0.914585,9.272744,-0.015267,0.000000,-0.015267,-5.747934,1.314863,4.520954
27115,55.982559,37.413028,0.203507,-0.921768,9.252393,0.000000,0.000000,0.000000,-5.747934,1.314863,4.520954
27215,55.982559,37.413028,0.208296,-0.918176,9.257182,-0.015267,-0.015267,0.000000,-5.740952,1.314598,4.520943
27315,55.982559,37.413028,0.214281,-0.912191,9.273941,0.000000,-0.015267,-0.015267,-5.733624,1.314240,4.520104
27418,55.982559,37.413028,0.213084,-0.910994,9.265561,-0.015267,0.000000,0.000000,-5.719754,1.313365,4.513124
27581,55.982559,37.413028,0.205901,-0.912191,9.269152,0.000000,-0.015267,-0.015267,-5.712678,1.313446,4.520072
27681,55.982559,37.413028,0.210690,-0.915782,9.264364,-0.015267,0.000000,-0.015267,-5.705697,1.313181,4.520061
27781,55.982559,37.413028,0.219069,-0.909797,9.264364,-0.015267,0.000000,-0.015267,-5.698808,1.312572,4.513090
27881,55.982559,37.413028,0.213084,-0.909797,9.272744,0.000000,-0.015267,0.000000,-5.691826,1.312307,4.513079
27981,55.982559,37.413028,0.207098,-0.914585,9.257182,-0.015267,0.000000,-0.015267,-5.691826,1.312307,4.513079
28081,55.982559,37.413028,0.201113,-0.916979,9.261970,0.000000,-0.015267,-0.015267,-5.685109,1.305063,4.512720
28181,55.982559,37.413028,0.203507,-0.927753,9.269152,0.000000,-0.015267,-0.015267,-5.685109,1.305063,4.512720
28281,55.982559,37.413028,0.215478,-0.915782,9.269152,-0.015267,-0.015267,-0.015267,-5.685109,1.305063,4.512720
28381,55.982559,37.413028,0.217872,-0.915782,9.264364,-0.015267,-0.015267,-0.015267,-5.678127,1.304798,4.512709
28481,55.982559,37.413028,0.217872,-0.900220,9.271547,-0.015267,0.000000,-0.015267,-5.671144,1.304534,4.512698
28581,55.982559,37.413028,0.204704,-0.907402,9.264364,-0.015267,-0.015267,-0.015267,-5.664163,1.304269,4.512686
28681,55.982559,37.413028,0.219069,-0.918176,9.264364,-0.015267,0.000000,-0.015267,-5.664163,1.304269,4.512686
28781,55.982559,37.413028,0.203507,-0.915782,9.259575,-0.015267,0.000000,0.000000,-5.664163,1.304269,4.512686
28881,55.982559,37.413028,0.210690,-0.914585,9.247605,-0.015267,-0.015267,0.000000,-5.664255,1.303927,4.505726
28981,55.982559,37.413028,0.213084,-0.914585,9.260772,0.000000,-0.015267,-0.015267,-5.664255,1.303927,4.505726
29081,55.982559,37.413028,0.214281,-0.913388,9.270349,0.000000,-0.015267,-0.015267,-5.657273,1.303663,4.505715
29181,55.982559,37.413028,0.208296,-0.915782,9.281124,-0.015267,0.000000,0.000000,-5.657273,1.303663,4.505715
29281,55.982559,37.413028,0.210690,-0.914585,9.269152,0.000000,-0.015267,-0.015267,-5.650026,1.310379,4.506051
29381,55.982559,37.413028,nan,nan,nan,nan,nan,nan,nan,nan,nan
29481,55.982559,37.413028,nan,nan,nan,nan,nan,nan,nan,nan,nan
29581,55.982559,37.413028,0.214281,-0.912191,9.264364,-0.015267,-0.015267,-0.015267,-5.643044,1.310115,4.506038
29681,55.982559,37.413028,0.216675,-0.927753,9.261970,0.000000,0.000000,-0.015267,-5.643137,1.309774,4.499079
29782,55.982559,37.413028,0.215478,-0.908600,9.265561,0.000000,0.000000,-0.015267,-5.643137,1.309774,4.499079
29882,55.982559,37.413028,0.211887,-0.906205,9.272744,0.000000,-0.015267,-0.015267,-5.643137,1.309774,4.499079
29982,55.982559,37.413028,0.213084,-0.915782,9.273941,0.000000,0.000000,-0.015267,-5.642874,1.316755,4.499424
30082,55.982559,37.413028,0.213084,-0.918176,9.270349,-0.015267,-0.015267,0.000000,-5.642874,1.316755,4.499424
30182,55.982559,37.413028,0.213084,-0.907402,9.272744,0.000000,0.000000,-0.015267,-5.642874,1.316755,4.499424
30282,55.982559,37.413028,0.215478,-0.925359,9.257182,0.000000,-0.015267,0.000000,-5.642874,1.316755,4.499424
30382,55.982559,37.413028,0.217872,-0.910994,9.272744,-0.015267,-0.015267,-0.015267,-5.642874,1.316755,4.499424
30482,55.982559,37.413028,0.205901,-0.915782,9.257182,0.000000,0.000000,-0.015267,-5.642874,1.316755,4.499424
30582,55.982559,37.413028,0.214281,-0.914585,9.266758,0.000000,-0.015267,0.000000,-5.643137,1.309774,4.499079
30682,55.982559,37.413028,0.216675,-0.918176,9.265561,0.000000,0.000000,0.000000,-5.643230,1.309433,4.492118
30782,55.982559,37.413028,0.216675,-0.921768,9.260772,0.000000,-0.015267,0.000000,-5.642967,1.316414,4.492465
30882,55.982559,37.413028,0.215478,-0.921768,9.266758,-0.015267,-0.015267,-0.015267,-5.643323,1.309092,4.485158
30982,55.982559,37.413028,0.215478,-0.919373,9.259575,0.000000,-0.015267,-0.015267,-5.643061,1.316073,4.485504
31082,55.982559,37.413028,0.214281,-0.925359,9.255984,0.000000,-0.015267,0.000000,-5.643061,1.316073,4.485504
31182,55.982559,37.413028,0.217872,-0.912191,9.261970,0.000000,-0.015267,0.000000,-5.643061,1.316073,4.485504
31282,55.982559,37.413028,0.211887,-0.909797,9.275137,0.000000,-0.015267,-0.015267,-5.643061,1.316073,4.485504
31382,55.982559,37.413028,0.215478,-0.918176,9.261970,0.000000,-0.015267,-0.015267,-5.642891,1.322712,4.478889
31526,55.982559,37.413028,0.215478,-0.915782,9.264364,0.000000,-0.015267,0.000000,-5.642891,1.322712,4.478889
31626,55.982559,37.413028,0.215478,-0.921768,9.277532,0.000000,-0.015267,0.000000,-5.642985,1.322371,4.471930
31726,55.982559,37.413028,0.207098,-0.912191,9.278729,0.000000,-0.015267,-0.015267,-5.636003,1.322109,4.471917
31826,55.982559,37.413028,0.215478,-0.907402,9.271547,0.000000,-0.015267,0.000000,-5.636003,1.322109,4.471917
31926,55.982559,37.413028,0.209493,-0.916979,9.267955,0.000000,-0.015267,0.000000,-5.636003,1.322109,4.471917
32026,55.982559,37.413028,0.217872,-0.924162,9.263167,0.000000,-0.015267,-0.015267,-5.636003,1.322109,4.471917
32126,55.982559,37.413028,0.219069,-0.908600,9.269152,0.000000,-0.015267,-0.015267,-5.636003,1.322109,4.471917
32226,55.982559,37.413028,0.219069,-0.900220,9.267955,0.000000,-0.015267,-0.015267,-5.635835,1.328750,4.465301
32326,55.982559,37.413028,0.216675,-0.907402,9.261970,0.000000,0.000000,-0.015267,-5.628758,1.328828,4.472249
32427,55.982559,37.413028,0.202310,-0.918176,9.269152,-0.015267,0.000000,-0.015267,-5.629020,1.321848,4.471903
32527,55.982559,37.413028,0.207098,-0.928950,9.272744,0.000000,0.000000,-0.015267,-5.629114,1.321507,4.464942
32627,55.982559,37.413028,0.221464,-0.915782,9.270349,0.000000,-0.015267,0.000000,-5.636003,1.322109,4.471917
32727,55.982559,37.413028,0.217872,-0.915782,9.271547,0.000000,-0.015267,-0.015267,-5.636003,1.322109,4.471917
32827,55.982559,37.413028,0.217872,-0.913388,9.257182,0.000000,-0.015267,-0.015267,-5.628758,1.328828,4.472249
32927,55.982559,37.413028,0.208296,-0.926556,9.276335,0.000000,-0.015267,0.000000,-5.635741,1.329090,4.472262
33027,55.982559,37.413028,0.211887,-0.916979,9.265561,0.000000,-0.015267,0.000000,-5.635835,1.328750,4.465301
33127,55.982559,37.413028,0.217872,-0.909797,9.259575,0.000000,0.000000,-0.015267,-5.629114,1.321507,4.464942
33227,55.982559,37.413028,0.216675,-0.924162,9.263167,-0.015267,-0.015267,-0.015267,-5.636096,1.321769,4.464955
33327,55.982559,37.413028,0.215478,-0.909797,9.264364,0.000000,-0.015267,-0.015267,-5.636096,1.321769,4.464955
33427,55.982559,37.413028,0.214281,-0.905008,9.269152,0.000000,-0.015267,-0.015267,-5.628774,1.321414,4.464123
33587,55.982559,37.413028,0.220267,-0.915782,9.270349,0.000000,-0.015267,-0.015267,-5.628774,1.321414,4.464123
33687,55.982559,37.413028,0.225055,-0.910994,9.272744,-0.015267,-0.015267,0.000000,-5.628512,1.328394,4.464469
33787,55.982559,37.413028,0.204704,-0.906205,9.252393,-0.015267,-0.015267,-0.015267,-5.628774,1.321414,4.464123
33887,55.982559,37.413028,0.215478,-0.914585,9.270349,0.000000,-0.015267,0.000000,-5.621884,1.320813,4.457151
33987,55.982559,37.413028,0.220267,-0.916979,9.275137,0.000000,0.000000,-0.015267,-5.621884,1.320813,4.457151
34087,55.982559,37.413028,0.214281,-0.912191,9.261970,0.000000,-0.015267,-0.015267,-5.621884,1.320813,4.457151
34187,55.982559,37.413028,0.213084,-0.920571,9.267955,-0.015267,-0.015267,-0.015267,-5.628867,1.321074,4.457164
34287,55.982559,37.413028,0.217872,-0.909797,9.270349,0.000000,-0.015267,0.000000,-5.621978,1.320473,4.450191
34387,55.982559,37.413028,0.210690,-0.914585,9.264364,0.000000,-0.015267,-0.015267,-5.621978,1.320473,4.450191
34487,55.982559,37.413028,0.208296,-0.913388,9.260772,0.000000,-0.015267,0.000000,-5.629221,1.313753,4.449859
34587,55.982559,37.413028,0.219069,-0.915782,9.258378,0.000000,0.000000,-0.015267,-5.629221,1.313753,4.449859
34688,55.982559,37.413028,0.222661,-0.908600,9.263167,0.000000,0.000000,-0.015267,-5.629221,1.313753,4.449859
34788,55.982559,37.413028,0.221464,-0.914585,9.249999,0.000000,0.000000,0.000000,-5.621978,1.320473,4.450191
34888,55.982559,37.413028,0.211887,-0.916979,9.281124,-0.015267,0.000000,-0.015267,-5.629221,1.313753,4.449859
34988,55.982559,37.413028,0.220267,-0.914585,9.264364,0.000000,-0.015267,-0.015267,-5.629221,1.313753,4.449859
35088,55.982559,37.413028,0.226252,-0.921768,9.275137,-0.015267,-0.015267,-0.015267,-5.628960,1.320734,4.450204
35188,55.982559,37.413028,0.213084,-0.913388,9.264364,0.000000,-0.015267,-0.015267,-5.628960,1.320734,4.450204
35288,55.982559,37.413028,0.219069,-0.928950,9.254787,0.000000,0.000000,-0.015267,-5.628960,1.320734,4.450204
35388,55.982559,37.413028,0.210690,-0.912191,9.265561,-0.015267,-0.015267,0.000000,-5.635942,1.320994,4.450218
35488,55.982559,37.413028,nan,nan,nan,nan,nan,nan,nan,nan,nan
35588,55.982559,37.413028,nan,nan,nan,nan,nan,nan,nan,nan,nan
35688,55.982559,37.413028,0.217872,-0.909797,9.258378,0.000000,-0.015267,-0.015267,-5.628960,1.320734,4.450204
35788,55.982559,37.413028,0.210690,-0.906205,9.265561,0.000000,0.000000,-0.015267,-5.622071,1.320133,4.443231
35888,55.982559,37.413028,0.210690,-0.915782,9.272744,-0.015267,-0.015267,-0.015267,-5.622071,1.320133,4.443231
35988,55.982559,37.413028,0.216675,-0.919373,9.255984,0.000000,0.000000,-0.015267,-5.621811,1.327114,4.443576
36088,55.982559,37.413028,0.217872,-0.919373,9.275137,-0.015267,-0.015267,-0.015267,-5.622071,1.320133,4.443231
36188,55.982559,37.413028,0.221464,-0.918176,9.269152,0.000000,-0.015267,-0.015267,-5.621811,1.327114,4.443576
36288,55.982559,37.413028,0.214281,-0.912191,9.260772,0.000000,-0.015267,0.000000,-5.621811,1.327114,4.443576
36388,55.982559,37.413028,0.215478,-0.915782,9.257182,0.000000,-0.015267,-0.015267,-5.628794,1.327374,4.443589
36488,55.982559,37.413028,0.222661,-0.915782,9.264364,0.000000,-0.015267,0.000000,-5.628794,1.327374,4.443589
36588,55.982559,37.413028,0.208296,-0.919373,9.276335,-0.015267,0.000000,0.000000,-5.628888,1.327034,4.436629
36688,55.982559,37.413028,0.208296,-0.916979,9.272744,0.000000,-0.015267,-0.015267,-5.621905,1.326774,4.436615
36788,55.982559,37.413028,0.210690,-0.925359,9.263167,0.000000,-0.015267,0.000000,-5.629147,1.320053,4.436284
36888,55.982559,37.413028,0.221464,-0.915782,9.260772,-0.015267,-0.015267,-0.015267,-5.629147,1.320053,4.436284
36988,55.982559,37.413028,0.219069,-0.924162,9.267955,0.000000,0.000000,0.000000,-5.628888,1.327034,4.436629
37088,55.982559,37.413028,0.216675,-0.921768,9.264364,-0.015267,-0.015267,0.000000,-5.629241,1.319713,4.429324
37188,55.982559,37.413028,0.215478,-0.916979,9.266758,0.000000,-0.015267,-0.015267,-5.635963,1.326953,4.429684
37288,55.982559,37.413028,0.225055,-0.910994,9.270349,0.000000,0.000000,0.000000,-5.635963,1.326953,4.429684
37388,55.982559,37.413028,0.204704,-0.910994,9.264364,0.000000,-0.015267,-0.015267,-5.636223,1.319973,4.429337
37488,55.982559,37.413028,nan,nan,nan,nan,nan,nan,nan,nan,nan
37588,55.982559,37.413028,nan,nan,nan,nan,nan,nan,nan,nan,nan
37688,55.982559,37.413028,0.213084,-0.910994,9.255984,0.000000,-0.015267,-0.015267,-5.629241,1.319713,4.429324
37788,55.982559,37.413028,0.221464,-0.912191,9.261970,0.000000,-0.015267,0.000000,-5.629241,1.319713,4.429324
37888,55.982559,37.413028,0.216675,-0.910994,9.276335,-0.015267,0.000000,-0.015267,-5.622258,1.319454,4.429310
37988,55.982559,37.413028,0.210690,-0.921768,9.270349,0.000000,-0.015267,-0.015267,-5.629241,1.319713,4.429324
38088,55.982559,37.413028,0.217872,-0.906205,9.275137,0.000000,0.000000,-0.015267,-5.622258,1.319454,4.429310
38188,55.982559,37.413028,0.211887,-0.919373,9.272744,0.000000,0.000000,0.000000,-5.622258,1.319454,4.429310
38288,55.982559,37.413028,0.215478,-0.915782,9.267955,0.000000,-0.015267,0.000000,-5.622258,1.319454,4.429310
38388,55.982559,37.413028,0.221464,-0.910994,9.267955,0.000000,0.000000,-0.015267,-5.622258,1.319454,4.429310
38488,55.982559,37.413028,0.207098,-0.915782,9.255984,0.000000,-0.015267,-0.015267,-5.622258,1.319454,4.429310
38588,55.982559,37.413028,0.215478,-0.909797,9.264364,0.000000,0.000000,-0.015267,-5.622258,1.319454,4.429310
38688,55.982559,37.413028,0.220267,-0.916979,9.267955,0.000000,0.000000,-0.015267,-5.622258,1.319454,4.429310
38788,55.982559,37.413028,0.216675,-0.921768,9.276335,0.000000,-0.015267,-0.015267,-5.629241,1.319713,4.429324
38888,55.982559,37.413028,0.210690,-0.910994,9.270349,0.000000,-0.015267,-0.015267,-5.629241,1.319713,4.429324
38988,55.982559,37.413028,0.203507,-0.906205,9.278729,0.000000,0.000000,-0.015267,-5.629241,1.319713,4.429324
39088,55.982559,37.413028,0.215478,-0.919373,9.275137,-0.015267,-0.015267,-0.015267,-5.629147,1.320053,4.436284
39188,55.982559,37.413028,0.205901,-0.909797,9.284714,0.000000,-0.015267,-0.015267,-5.629407,1.313073,4.435939
39288,55.982559,37.413028,0.216675,-0.914585,9.263167,0.000000,0.000000,0.000000,-5.629407,1.313073,4.435939
39388,55.982559,37.413028,nan,nan,nan,nan,nan,nan,nan,nan,nan
39488,55.982559,37.413028,nan,nan,nan,nan,nan,nan,nan,nan,nan
39588,55.982559,37.413028,0.214281,-0.908600,9.272744,0.000000,-0.015267,0.000000,-5.629500,1.312733,4.428979
39688,55.982559,37.413028,0.219069,-0.912191,9.270349,-0.015267,0.000000,0.000000,-5.629500,1.312733,4.428979
39788,55.982559,37.413028,0.223858,-0.919373,9.265561,0.000000,-0.015267,-0.015267,-5.629500,1.312733,4.428979
39888,55.982559,37.413028,0.209493,-0.909797,9.261970,0.000000,-0.015267,-0.015267,-5.622518,1.312473,4.428966
39988,55.982559,37.413028,0.209493,-0.922965,9.277532,-0.015267,-0.015267,-0.015267,-5.629500,1.312733,4.428979
40088,55.982559,37.413028,0.205901,-0.902614,9.277532,-0.015267,0.000000,-0.015267,-5.629500,1.312733,4.428979
40188,55.982559,37.413028,0.209493,-0.903811,9.264364,0.000000,0.000000,0.000000,-5.622518,1.312473,4.428966
40288,55.982559,37.413028,0.217872,-0.908600,9.261970,-0.015267,-0.015267,-0.015267,-5.622518,1.312473,4.428966
40388,55.982559,37.413028,0.215478,-0.897826,9.266758,-0.015267,-0.015267,0.000000,-5.622258,1.319454,4.429310
40488,55.982559,37.413028,0.207098,-0.915782,9.269152,-0.015267,-0.015267,0.000000,-5.622258,1.319454,4.429310
40588,55.982559,37.413028,0.216675,-0.916979,9.272744,-0.015267,0.000000,-0.015267,-5.622258,1.319454,4.429310
40688,55.982559,37.413028,0.214281,-0.918176,9.266758,0.000000,-0.015267,-0.015267,-5.622518,1.312473,4.428966
40788,55.982559,37.413028,0.210690,-0.913388,9.263167,-0.015267,-0.015267,0.000000,-5.622258,1.319454,4.429310
40888,55.982559,37.413028,0.220267,-0.916979,9.269152,0.000000,-0.015267,-0.015267,-5.622258,1.319454,4.429310
40988,55.982559,37.413028,0.214281,-0.912191,9.277532,0.000000,-0.015267,0.000000,-5.629241,1.319713,4.429324
41088,55.982559,37.413028,0.214281,-0.912191,9.260772,0.000000,-0.015267,0.000000,-5.622258,1.319454,4.429310
41188,55.982559,37.413028,0.221464,-0.909797,9.257182,0.000000,-0.015267,-0.015267,-5.622258,1.319454,4.429310
41288,55.982559,37.413028,0.208296,-0.921768,9.264364,0.000000,-0.015267,-0.015267,-5.629241,1.319713,4.429324
41388,55.982559,37.413028,0.211887,-0.915782,9.263167,0.000000,0.000000,-0.015267,-5.629593,1.312393,4.422018
41488,55.982559,37.413028,0.208296,-0.919373,9.257182,0.000000,-0.015267,0.000000,-5.629593,1.312393,4.422018
41622,55.982559,37.413028,0.216675,-0.913388,9.260772,0.000000,-0.015267,-0.015267,-5.629500,1.312733,4.428979
41722,55.982559,37.413028,0.211887,-0.915782,9.269152,0.000000,-0.015267,0.000000,-5.629500,1.312733,4.428979
41822,55.982559,37.413028,0.215478,-0.913388,9.277532,0.000000,-0.015267,-0.015267,-5.629500,1.312733,4.428979
41922,55.982559,37.413028,0.211887,-0.912191,9.270349,0.000000,-0.015267,0.000000,-5.629500,1.312733,4.428979
42022,55.982559,37.413028,0.210690,-0.914585,9.278729,0.000000,-0.015267,-0.015267,-5.629593,1.312393,4.422018
42122,55.982559,37.413028,0.217872,-0.907402,9.290700,0.000000,-0.015267,-0.015267,-5.629593,1.312393,4.422018
42222,55.982559,37.413028,0.210690,-0.908600,9.275137,0.000000,-0.015267,-0.015267,-5.629593,1.312393,4.422018
42322,55.982559,37.413028,0.216675,-0.916979,9.264364,0.000000,-0.015267,-0.015267,-5.629593,1.312393,4.422018
42422,55.982559,37.413028,0.214281,-0.915782,9.253590,0.000000,0.000000,0.000000,-5.629593,1.312393,4.422018
42522,55.982559,37.413028,0.208296,-0.914585,9.264364,0.000000,-0.015267,0.000000,-5.629593,1.312393,4.422018
42622,55.982559,37.413028,0.207098,-0.912191,9.269152,0.000000,-0.015267,0.000000,-5.629852,1.305412,4.421673
42722,55.982559,37.413028,0.210690,-0.918176,9.259575,0.000000,0.000000,-0.015267,-5.629852,1.305412,4.421673
42822,55.982559,37.413028,0.219069,-0.921768,9.260772,-0.015267,-0.015267,0.000000,-5.629852,1.305412,4.421673
42923,55.982559,37.413028,0.220267,-0.910994,9.269152,-0.015267,0.000000,0.000000,-5.629852,1.305412,4.421673
43023,55.982559,37.413028,0.213084,-0.916979,9.277532,-0.015267,-0.015267,0.000000,-5.636835,1.305671,4.421686
43123,55.982559,37.413028,0.211887,-0.914585,9.264364,-0.015267,-0.015267,-0.015267,-5.636835,1.305671,4.421686
43223,55.982559,37.413028,0.213084,-0.909797,9.271547,-0.015267,0.000000,-0.015267,-5.636835,1.305671,4.421686
43323,55.982559,37.413028,0.215478,-0.915782,9.264364,0.000000,0.000000,-0.015267,-5.637094,1.298691,4.421340
43423,55.982559,37.413028,nan,nan,nan,nan,nan,nan,nan,nan,nan
43523,55.982559,37.413028,nan,nan,nan,nan,nan,nan,nan,nan,nan
43623,55.982559,37.413028,0.213084,-0.903811,9.260772,0.000000,-0.015267,0.000000,-5.629852,1.305412,4.421673
43723,55.982559,37.413028,0.209493,-0.916979,9.269152,0.000000,0.000000,-0.015267,-5.629852,1.305412,4.421673
43823,55.982559,37.413028,0.216675,-0.915782,9.254787,0.000000,-0.015267,-0.015267,-5.629852,1.305412,4.421673
43923,55.982559,37.413028,0.204704,-0.920571,9.246407,0.000000,-0.015267,0.000000,-5.629852,1.305412,4.421673
44023,55.982559,37.413028,0.214281,-0.920571,9.271547,0.000000,-0.015267,-0.015267,-5.629944,1.305072,4.414712
44123,55.982559,37.413028,0.208296,-0.914585,9.272744,0.000000,-0.015267,0.000000,-5.629944,1.305072,4.414712
44223,55.982559,37.413028,0.213084,-0.922965,9.252393,0.000000,-0.015267,-0.015267,-5.636668,1.312311,4.415071
44323,55.982559,37.413028,0.221464,-0.905008,9.265561,-0.015267,0.000000,-0.015267,-5.629686,1.312052,4.415058
44423,55.982559,37.413028,0.215478,-0.920571,9.277532,-0.015267,-0.015267,0.000000,-5.629686,1.312052,4.415058
44523,55.982559,37.413028,0.215478,-0.919373,9.267955,0.000000,0.000000,0.000000,-5.636409,1.319291,4.415417
44623,55.982559,37.413028,0.208296,-0.918176,9.275137,0.000000,0.000000,0.000000,-5.636409,1.319291,4.415417
44723,55.982559,37.413028,0.214281,-0.919373,9.251195,0.000000,-0.015267,-0.015267,-5.636503,1.318951,4.408457
44823,55.982559,37.413028,0.221464,-0.909797,9.259575,0.000000,0.000000,0.000000,-5.636151,1.326272,4.415763
44923,55.982559,37.413028,0.210690,-0.916979,9.257182,0.000000,0.000000,-0.015267,-5.636409,1.319291,4.415417
45023,55.982559,37.413028,0.216675,-0.912191,9.269152,0.000000,-0.015267,-0.015267,-5.629427,1.319033,4.415403
45123,55.982559,37.413028,0.209493,-0.914585,9.247605,0.000000,-0.015267,-0.015267,-5.629427,1.319033,4.415403
45223,55.982559,37.413028,0.219069,-0.916979,9.271547,0.000000,-0.015267,0.000000,-5.629427,1.319033,4.415403
45323,55.982559,37.413028,0.213084,-0.907402,9.278729,-0.015267,0.000000,-0.015267,-5.629427,1.319033,4.415403
45423,55.982559,37.413028,nan,nan,nan,nan,nan,nan,nan,nan,nan
45523,55.982559,37.413028,nan,nan,nan,nan,nan,nan,nan,nan,nan
45623,55.982559,37.413028,0.214281,-0.905008,9.279926,0.000000,-0.015267,-0.015267,-5.622539,1.318435,4.408428
45723,55.982559,37.413028,0.211887,-0.910994,9.254787,0.000000,-0.015267,-0.015267,-5.622445,1.318774,4.415389
45824,55.982559,37.413028,0.217872,-0.913388,9.271547,-0.015267,-0.015267,-0.015267,-5.622703,1.311794,4.415044
45924,55.982559,37.413028,0.214281,-0.919373,9.269152,0.000000,-0.015267,-0.015267,-5.629521,1.318693,4.408442
46024,55.982559,37.413028,0.211887,-0.908600,9.278729,0.000000,-0.015267,-0.015267,-5.622539,1.318435,4.408428
46124,55.982559,37.413028,0.210690,-0.912191,9.259575,0.000000,0.000000,-0.015267,-5.629521,1.318693,4.408442
46224,55.982559,37.413028,0.214281,-0.914585,9.260772,-0.015267,-0.015267,0.000000,-5.629521,1.318693,4.408442
46324,55.982559,37.413028,0.216675,-0.916979,9.254787,0.000000,-0.015267,-0.015267,-5.629427,1.319033,4.415403
46424,55.982559,37.413028,0.216675,-0.913388,9.261970,-0.015267,-0.015267,-0.015267,-5.629521,1.318693,4.408442
46524,55.982559,37.413028,0.215478,-0.909797,9.270349,0.000000,-0.015267,0.000000,-5.629521,1.318693,4.408442
46624,55.982559,37.413028,0.197522,-0.909797,9.254787,0.000000,-0.015267,-0.015267,-5.622539,1.318435,4.408428
46724,55.982559,37.413028,0.202310,-0.924162,9.255984,0.000000,0.000000,0.000000,-5.622539,1.318435,4.408428
46824,55.982559,37.413028,0.210690,-0.921768,9.254787,0.000000,-0.015267,-0.015267,-5.629521,1.318693,4.408442
46924,55.982559,37.413028,0.215478,-0.919373,9.271547,0.000000,0.000000,-0.015267,-5.629521,1.318693,4.408442
47024,55.982559,37.413028,0.215478,-0.918176,9.263167,0.000000,-0.015267,-0.015267,-5.629427,1.319033,4.415403
47124,55.982559,37.413028,0.205901,-0.907402,9.255984,0.000000,0.000000,-0.015267,-5.629779,1.311712,4.408097
47224,55.982559,37.413028,0.204704,-0.906205,9.271547,0.000000,0.000000,0.000000,-5.629779,1.311712,4.408097
47324,55.982559,37.413028,0.213084,-0.919373,9.253590,0.000000,0.000000,-0.015267,-5.629779,1.311712,4.408097
47424,55.982559,37.413028,0.210690,-0.912191,9.266758,0.000000,-0.015267,-0.015267,-5.629779,1.311712,4.408097
47590,55.982559,37.413028,nan,nan,nan,nan,nan,nan,nan,nan,nan
47690,55.982559,37.413028,0.220267,-0.919373,9.266758,-0.015267,-0.015267,0.000000,-5.629521,1.318693,4.408442
47790,55.982559,37.413028,0.207098,-0.912191,9.260772,-0.015267,0.000000,-0.015267,-5.629779,1.311712,4.408097
47890,55.982559,37.413028,0.207098,-0.918176,9.258378,-0.015267,-0.015267,0.000000,-5.629779,1.311712,4.408097
47990,55.982559,37.413028,0.217872,-0.918176,9.261970,0.000000,0.000000,0.000000,-5.629872,1.311372,4.401136
48090,55.982559,37.413028,0.215478,-0.914585,9.272744,0.000000,-0.015267,0.000000,-5.629872,1.311372,4.401136
48190,55.982559,37.413028,0.214281,-0.910994,9.265561,0.000000,-0.015267,0.000000,-5.629872,1.311372,4.401136
48290,55.982559,37.413028,0.215478,-0.921768,9.276335,0.000000,0.000000,-0.015267,-5.629614,1.318352,4.401482
48390,55.982559,37.413028,0.211887,-0.920571,9.278729,0.000000,-0.015267,0.000000,-5.629614,1.318352,4.401482
48490,55.982559,37.413028,0.215478,-0.915782,9.265561,0.000000,-0.015267,-0.015267,-5.629614,1.318352,4.401482
48590,55.982559,37.413028,0.219069,-0.901417,9.255984,0.000000,0.000000,-0.015267,-5.629614,1.318352,4.401482
48690,55.982559,37.413028,0.217872,-0.916979,9.265561,0.000000,0.000000,-0.015267,-5.622631,1.318095,4.401468
48790,55.982559,37.413028,0.210690,-0.910994,9.266758,-0.015267,-0.015267,0.000000,-5.622724,1.317755,4.394506
48890,55.982559,37.413028,0.231040,-0.919373,9.240422,0.000000,-0.015267,-0.015267,-5.622724,1.317755,4.394506
48990,55.982559,37.413028,0.199916,-0.910994,9.266758,0.000000,-0.015267,-0.015267,-5.622724,1.317755,4.394506
49090,55.982559,37.413028,0.221464,-0.914585,9.265561,0.000000,-0.015267,-0.015267,-5.622724,1.317755,4.394506
49190,55.982559,37.413028,0.219069,-0.908600,9.267955,0.000000,0.000000,0.000000,-5.622724,1.317755,4.394506
49290,55.982559,37.413028,0.210690,-0.913388,9.251195,0.000000,-0.015267,0.000000,-5.622817,1.317415,4.387546
49390,55.982559,37.413028,0.213084,-0.912191,9.267955,0.000000,-0.015267,-0.015267,-5.622817,1.317415,4.387546
49490,55.982559,37.413028,nan,nan,nan,nan,nan,nan,nan,nan,nan
49590,55.982559,37.413028,nan,nan,nan,nan,nan,nan,nan,nan,nan
49690,55.982559,37.413028,0.222661,-0.920571,9.266758,0.000000,-0.015267,-0.015267,-5.622560,1.324396,4.387890
49790,55.982559,37.413028,0.198719,-0.914585,9.259575,0.000000,-0.015267,-0.015267,-5.622560,1.324396,4.387890
49890,55.982559,37.413028,0.209493,-0.906205,9.254787,-0.015267,0.000000,-0.015267,-5.629543,1.324653,4.387905
49990,55.982559,37.413028,0.220267,-0.908600,9.267955,0.000000,0.000000,-0.015267,-5.622560,1.324396,4.387890
50091,55.982559,37.413028,0.213084,-0.908600,9.281124,0.000000,0.000000,-0.015267,-5.622560,1.324396,4.387890
50191,55.982559,37.413028,0.222661,-0.910994,9.267955,0.000000,0.000000,-0.015267,-5.622560,1.324396,4.387890
50291,55.982559,37.413028,0.205901,-0.914585,9.263167,0.000000,0.000000,0.000000,-5.615672,1.323800,4.380914
50391,55.982559,37.413028,0.219069,-0.914585,9.267955,0.000000,-0.015267,0.000000,-5.615672,1.323800,4.380914
50491,55.982559,37.413028,0.214281,-0.905008,9.264364,0.000000,0.000000,0.000000,-5.615578,1.324139,4.387876
50591,55.982559,37.413028,0.215478,-0.920571,9.273941,0.000000,-0.015267,-0.015267,-5.615672,1.323800,4.380914
50691,55.982559,37.413028,0.207098,-0.915782,9.264364,0.000000,-0.015267,-0.015267,-5.615928,1.316819,4.380569
50791,55.982559,37.413028,0.210690,-0.913388,9.263167,-0.015267,0.000000,-0.015267,-5.622910,1.317075,4.380584
50891,55.982559,37.413028,0.223858,-0.921768,9.252393,-0.015267,-0.015267,0.000000,-5.622910,1.317075,4.380584
50991,55.982559,37.413028,0.205901,-0.915782,9.263167,0.000000,0.000000,0.000000,-5.622817,1.317415,4.387546
51091,55.982559,37.413028,0.210690,-0.926556,9.261970,-0.015267,-0.015267,0.000000,-5.630150,1.310351,4.380253
51191,55.982559,37.413028,0.213084,-0.916979,9.264364,0.000000,0.000000,-0.015267,-5.630150,1.310351,4.380253
51291,55.982559,37.413028,0.210690,-0.910994,9.273941,0.000000,-0.015267,-0.015267,-5.629893,1.317332,4.380599
51391,55.982559,37.413028,0.221464,-0.913388,9.265561,0.000000,0.000000,-0.015267,-5.629893,1.317332,4.380599
51544,55.982559,37.413028,nan,nan,nan,nan,nan,nan,nan,nan,nan
51644,55.982559,37.413028,0.225055,-0.920571,9.278729,0.000000,0.000000,-0.015267,-5.629637,1.324313,4.380944
51744,55.982559,37.413028,0.214281,-0.915782,9.267955,0.000000,-0.015267,-0.015267,-5.636619,1.324569,4.380959
51844,55.982559,37.413028,0.214281,-0.913388,9.263167,0.000000,-0.015267,-0.015267,-5.636876,1.317588,4.380613
51944,55.982559,37.413028,0.225055,-0.918176,9.278729,0.000000,0.000000,-0.015267,-5.636619,1.324569,4.380959
52044,55.982559,37.413028,0.215478,-0.913388,9.263167,0.000000,-0.015267,0.000000,-5.636619,1.324569,4.380959
52144,55.982559,37.413028,0.207098,-0.909797,9.253590,0.000000,0.000000,0.000000,-5.629893,1.317332,4.380599
52244,55.982559,37.413028,0.209493,-0.914585,9.267955,0.000000,-0.015267,0.000000,-5.629893,1.317332,4.380599
52344,55.982559,37.413028,0.225055,-0.918176,9.260772,0.000000,-0.015267,0.000000,-5.629637,1.324313,4.380944
52444,55.982559,37.413028,0.216675,-0.922965,9.263167,-0.015267,0.000000,-0.015267,-5.629637,1.324313,4.380944
52544,55.982559,37.413028,0.213084,-0.916979,9.276335,0.000000,-0.015267,-0.015267,-5.636713,1.324228,4.373997
52644,55.982559,37.413028,0.207098,-0.915782,9.287109,-0.015267,-0.015267,0.000000,-5.629986,1.316992,4.373637
52744,55.982559,37.413028,0.205901,-0.922965,9.271547,0.000000,-0.015267,-0.015267,-5.629986,1.316992,4.373637
52844,55.982559,37.413028,0.214281,-0.922965,9.267955,0.000000,0.000000,0.000000,-5.636969,1.317248,4.373652
52944,55.982559,37.413028,0.213084,-0.921768,9.271547,0.000000,-0.015267,-0.015267,-5.636969,1.317248,4.373652
53044,55.982559,37.413028,0.208296,-0.919373,9.265561,0.000000,-0.015267,0.000000,-5.644207,1.310523,4.373320
53144,55.982559,37.413028,0.208296,-0.922965,9.285912,0.000000,-0.015267,-0.015267,-5.644207,1.310523,4.373320
53244,55.982559,37.413028,0.207098,-0.908600,9.270349,0.000000,-0.015267,0.000000,-5.637225,1.310267,4.373306
53344,55.982559,37.413028,0.207098,-0.912191,9.275137,0.000000,-0.015267,0.000000,-5.637225,1.310267,4.373306
53445,55.982559,37.413028,nan,nan,nan,nan,nan,nan,nan,nan,nan
53545,55.982559,37.413028,nan,nan,nan,nan,nan,nan,nan,nan,nan
53645,55.982559,37.413028,0.209493,-0.913388,9.267955,0.000000,-0.015267,-0.015267,-5.637225,1.310267,4.373306
53745,55.982559,37.413028,0.215478,-0.919373,9.260772,-0.015267,-0.015267,-0.015267,-5.637225,1.310267,4.373306
53846,55.982559,37.413028,0.217872,-0.921768,9.275137,-0.015267,-0.015267,-0.015267,-5.637225,1.310267,4.373306
53946,55.982559,37.413028,0.215478,-0.916979,9.269152,0.000000,-0.015267,-0.015267,-5.644207,1.310523,4.373320
54046,55.982559,37.413028,0.221464,-0.909797,9.273941,-0.015267,0.000000,-0.015267,-5.636969,1.317248,4.373652
54146,55.982559,37.413028,0.214281,-0.908600,9.266758,0.000000,0.000000,-0.015267,-5.637225,1.310267,4.373306
54246,55.982559,37.413028,0.214281,-0.909797,9.265561,-0.015267,0.000000,-0.015267,-5.630242,1.310011,4.373292
54346,55.982559,37.413028,0.211887,-0.912191,9.277532,-0.015267,0.000000,0.000000,-5.630242,1.310011,4.373292
54446,55.982559,37.413028,0.213084,-0.914585,9.263167,0.000000,-0.015267,0.000000,-5.630242,1.310011,4.373292
54546,55.982559,37.413028,0.214281,-0.902614,9.269152,0.000000,0.000000,0.000000,-5.630335,1.309671,4.366331
54646,55.982559,37.413028,0.210690,-0.913388,9.254787,0.000000,0.000000,0.000000,-5.630335,1.309671,4.366331
54746,55.982559,37.413028,0.211887,-0.916979,9.281124,-0.015267,0.000000,0.000000,-5.630335,1.309671,4.366331
54846,55.982559,37.413028,0.210690,-0.918176,9.251195,-0.015267,-0.015267,-0.015267,-5.637318,1.309926,4.366345
54946,55.982559,37.413028,0.215478,-0.912191,9.255984,-0.015267,-0.015267,-0.015267,-5.630335,1.309671,4.366331
55046,55.982559,37.413028,0.219069,-0.922965,9.271547,0.000000,0.000000,-0.015267,-5.637318,1.309926,4.366345
55146,55.982559,37.413028,0.223858,-0.915782,9.260772,-0.015267,-0.015267,0.000000,-5.637410,1.309585,4.359383
55246,55.982559,37.413028,0.215478,-0.920571,9.266758,0.000000,-0.015267,-0.015267,-5.637062,1.316907,4.366690
55346,55.982559,37.413028,0.214281,-0.922965,9.261970,0.000000,0.000000,-0.015267,-5.637155,1.316566,4.359729
55449,55.982559,37.413028,0.215478,-0.932542,9.272744,-0.015267,-0.015267,-0.015267,-5.644137,1.316821,4.359744
55597,55.982559,37.413028,0.208296,-0.910994,9.270349,-0.015267,-0.015267,-0.015267,-5.644393,1.309841,4.359397
55697,55.982559,37.413028,0.216675,-0.913388,9.269152,-0.015267,-0.015267,-0.015267,-5.644137,1.316821,4.359744
55797,55.982559,37.413028,0.220267,-0.918176,9.266758,-0.015267,0.000000,-0.015267,-5.644137,1.316821,4.359744
55897,55.982559,37.413028,0.215478,-0.916979,9.266758,0.000000,-0.015267,0.000000,-5.651120,1.317076,4.359758
55997,55.982559,37.413028,0.213084,-0.913388,9.279926,0.000000,0.000000,-0.015267,-5.644137,1.316821,4.359744
56097,55.982559,37.413028,0.214281,-0.913388,9.260772,0.000000,-0.015267,0.000000,-5.644137,1.316821,4.359744
56197,55.982559,37.413028,0.209493,-0.910994,9.272744,0.000000,0.000000,0.000000,-5.644137,1.316821,4.359744
56297,55.982559,37.413028,0.220267,-0.913388,9.265561,-0.015267,-0.015267,0.000000,-5.644137,1.316821,4.359744
56397,55.982559,37.413028,0.211887,-0.920571,9.267955,0.000000,-0.015267,-0.015267,-5.637155,1.316566,4.359729
56497,55.982559,37.413028,0.211887,-0.906205,9.260772,0.000000,0.000000,-0.015267,-5.637155,1.316566,4.359729
56597,55.982559,37.413028,0.215478,-0.920571,9.260772,-0.015267,-0.015267,-0.015267,-5.637155,1.316566,4.359729
56697,55.982559,37.413028,0.209493,-0.913388,9.276335,0.000000,0.000000,0.000000,-5.637155,1.316566,4.359729
56797,55.982559,37.413028,0.207098,-0.908600,9.263167,0.000000,-0.015267,-0.015267,-5.637155,1.316566,4.359729
56897,55.982559,37.413028,0.217872,-0.919373,9.263167,0.000000,-0.015267,-0.015267,-5.637155,1.316566,4.359729
56997,55.982559,37.413028,0.213084,-0.918176,9.260772,0.000000,-0.015267,0.000000,-5.636900,1.323547,4.360074
57097,55.982559,37.413028,0.220267,-0.910994,9.273941,0.000000,-0.015267,-0.015267,-5.636993,1.323206,4.353113
57197,55.982559,37.413028,0.214281,-0.908600,9.266758,-0.015267,-0.015267,0.000000,-5.636993,1.323206,4.353113
57297,55.982559,37.413028,0.205901,-0.907402,9.265561,0.000000,-0.015267,-0.015267,-5.636993,1.323206,4.353113
57397,55.982559,37.413028,0.214281,-0.907402,9.261970,-0.015267,-0.015267,-0.015267,-5.637248,1.316226,4.352767
57546,55.982559,37.413028,0.211887,-0.915782,9.260772,0.000000,-0.015267,-0.015267,-5.636993,1.323206,4.353113
57646,55.982559,37.413028,0.214281,-0.913388,9.248802,-0.015267,-0.015267,-0.015267,-5.636993,1.323206,4.353113
57746,55.982559,37.413028,0.207098,-0.908600,9.269152,0.000000,-0.015267,-0.015267,-5.637341,1.315885,4.345806
57846,55.982559,37.413028,0.208296,-0.908600,9.266758,0.000000,-0.015267,-0.015267,-5.630358,1.315631,4.345791
57946,55.982559,37.413028,0.221464,-0.915782,9.254787,-0.015267,-0.015267,0.000000,-5.630265,1.315971,4.352753
58046,55.982559,37.413028,0.215478,-0.914585,9.254787,-0.015267,-0.015267,0.000000,-5.630358,1.315631,4.345791
58146,55.982559,37.413028,0.214281,-0.916979,9.272744,0.000000,-0.015267,-0.015267,-5.630358,1.315631,4.345791
58246,55.982559,37.413028,0.209493,-0.912191,9.269152,-0.015267,-0.015267,-0.015267,-5.630265,1.315971,4.352753
58346,55.982559,37.413028,0.219069,-0.918176,9.281124,0.000000,-0.015267,-0.015267,-5.630265,1.315971,4.352753
58446,55.982559,37.413028,0.210690,-0.919373,9.272744,-0.015267,-0.015267,-0.015267,-5.630358,1.315631,4.345791
58546,55.982559,37.413028,0.208296,-0.909797,9.259575,0.000000,0.000000,-0.015267,-5.630265,1.315971,4.352753
58646,55.982559,37.413028,0.202310,-0.908600,9.260772,0.000000,-0.015267,0.000000,-5.630265,1.315971,4.352753
58746,55.982559,37.413028,0.219069,-0.914585,9.270349,-0.015267,-0.015267,-0.015267,-5.630520,1.308990,4.352407
58846,55.982559,37.413028,0.217872,-0.918176,9.269152,-0.015267,-0.015267,0.000000,-5.630265,1.315971,4.352753
58946,55.982559,37.413028,0.215478,-0.919373,9.276335,-0.015267,-0.015267,-0.015267,-5.637248,1.316226,4.352767
59046,55.982559,37.413028,0.217872,-0.914585,9.267955,0.000000,0.000000,-0.015267,-5.637248,1.316226,4.352767
59146,55.982559,37.413028,0.221464,-0.921768,9.255984,0.000000,0.000000,0.000000,-5.637341,1.315885,4.345806
59246,55.982559,37.413028,0.222661,-0.909797,9.265561,0.000000,0.000000,-0.015267,-5.637248,1.316226,4.352767
59346,55.982559,37.413028,0.216675,-0.907402,9.265561,0.000000,-0.015267,0.000000,-5.637248,1.316226,4.352767
59448,55.982559,37.413028,0.207098,-0.913388,9.264364,0.000000,0.000000,-0.015267,-5.637086,1.322866,4.346151
59596,55.982559,37.413028,0.211887,-0.914585,9.267955,-0.015267,-0.015267,-0.015267,-5.637086,1.322866,4.346151
59696,55.982559,37.413028,0.204704,-0.903811,9.284714,-0.015267,-0.015267,-0.015267,-5.637341,1.315885,4.345806
59796,55.982559,37.413028,0.217872,-0.913388,9.267955,0.000000,-0.015267,0.000000,-5.630358,1.315631,4.345791
59896,55.982559,37.413028,0.216675,-0.912191,9.272744,0.000000,0.000000,-0.015267,-5.630358,1.315631,4.345791
59996,55.982559,37.413028,0.216675,-0.914585,9.275137,0.000000,-0.015267,0.000000,-5.630358,1.315631,4.345791
60096,55.982559,37.413028,0.203507,-0.924162,9.266758,0.000000,-0.015267,-0.015267,-5.637341,1.315885,4.345806
60196,55.982559,37.413028,0.215478,-0.922965,9.269152,0.000000,-0.015267,-0.015267,-5.637341,1.315885,4.345806
60296,55.982559,37.413028,0.211887,-0.914585,9.265561,0.000000,-0.015267,0.000000,-5.637341,1.315885,4.345806
60396,55.982559,37.413028,0.214281,-0.927753,9.267955,0.000000,-0.015267,-0.015267,-5.644324,1.316139,4.345820
60496,55.982559,37.413028,0.221464,-0.916979,9.270349,0.000000,-0.015267,-0.015267,-5.644324,1.316139,4.345820
60596,55.982559,37.413028,0.204704,-0.925359,9.272744,-0.015267,0.000000,0.000000,-5.644324,1.316139,4.345820
60696,55.982559,37.413028,0.203507,-0.919373,9.275137,0.000000,-0.015267,-0.015267,-5.644578,1.309158,4.345474
60796,55.982559,37.413028,0.210690,-0.905008,9.277532,0.000000,-0.015267,-0.015267,-5.637595,1.308904,4.345460
60896,55.982559,37.413028,0.222661,-0.901417,9.270349,0.000000,0.000000,0.000000,-5.630358,1.315631,4.345791
60996,55.982559,37.413028,0.214281,-0.924162,9.261970,-0.015267,-0.015267,-0.015267,-5.637341,1.315885,4.345806
61096,55.982559,37.413028,0.203507,-0.914585,9.281124,-0.015267,0.000000,-0.015267,-5.630358,1.315631,4.345791
61196,55.982559,37.413028,0.211887,-0.913388,9.260772,0.000000,-0.015267,0.000000,-5.630358,1.315631,4.345791
61296,55.982559,37.413028,0.221464,-0.920571,9.283517,0.000000,-0.015267,-0.015267,-5.630358,1.315631,4.345791
61396,55.982559,37.413028,0.219069,-0.914585,9.270349,-0.015267,-0.015267,-0.015267,-5.637341,1.315885,4.345806
61496,55.982559,37.413028,0.219069,-0.924162,9.266758,0.000000,-0.015267,0.000000,-5.637341,1.315885,4.345806
61613,55.982559,37.413028,0.211887,-0.916979,9.270349,0.000000,-0.015267,-0.015267,-5.637341,1.315885,4.345806
61713,55.982559,37.413028,0.219069,-0.920571,9.266758,-0.015267,-0.015267,0.000000,-5.637341,1.315885,4.345806
61813,55.982559,37.413028,0.222661,-0.913388,9.255984,-0.015267,0.000000,0.000000,-5.644069,1.323120,4.346167
61913,55.982559,37.413028,0.217872,-0.914585,9.258378,-0.015267,-0.015267,-0.015267,-5.644069,1.323120,4.346167
62013,55.982559,37.413028,0.211887,-0.914585,9.264364,0.000000,0.000000,-0.015267,-5.644069,1.323120,4.346167
62113,55.982559,37.413028,0.220267,-0.924162,9.257182,0.000000,-0.015267,-0.015267,-5.651051,1.323374,4.346182
62213,55.982559,37.413028,0.210690,-0.928950,9.260772,-0.015267,-0.015267,-0.015267,-5.651051,1.323374,4.346182
62313,55.982559,37.413028,0.207098,-0.916979,9.270349,0.000000,-0.015267,-0.015267,-5.651144,1.323032,4.339220
62413,55.982559,37.413028,0.210690,-0.922965,9.273941,0.000000,0.000000,0.000000,-5.658127,1.323286,4.339235
62513,55.982559,37.413028,0.222661,-0.918176,9.260772,0.000000,0.000000,0.000000,-5.658127,1.323286,4.339235
62613,55.982559,37.413028,0.213084,-0.909797,9.260772,0.000000,-0.015267,0.000000,-5.658127,1.323286,4.339235
62713,55.982559,37.413028,0.216675,-0.907402,9.269152,0.000000,-0.015267,0.000000,-5.651144,1.323032,4.339220
62813,55.982559,37.413028,0.215478,-0.910994,9.270349,0.000000,-0.015267,-0.015267,-5.651144,1.323032,4.339220
62913,55.982559,37.413028,0.216675,-0.912191,9.267955,0.000000,0.000000,0.000000,-5.651144,1.323032,4.339220
63013,55.982559,37.413028,0.210690,-0.906205,9.271547,-0.015267,-0.015267,0.000000,-5.644162,1.322779,4.339204
63113,55.982559,37.413028,0.209493,-0.908600,9.267955,0.000000,-0.015267,-0.015267,-5.644162,1.322779,4.339204
63213,55.982559,37.413028,0.213084,-0.915782,9.275137,0.000000,-0.015267,-0.015267,-5.644256,1.322438,4.332242
63313,55.982559,37.413028,0.211887,-0.916979,9.265561,0.000000,-0.015267,-0.015267,-5.651238,1.322691,4.332258
63413,55.982559,37.413028,0.209493,-0.924162,9.272744,-0.015267,-0.015267,-0.015267,-5.651144,1.323032,4.339220
63579,55.982559,37.413028,nan,nan,nan,nan,nan,nan,nan,nan,nan
63679,55.982559,37.413028,0.215478,-0.914585,9.267955,0.000000,-0.015267,-0.015267,-5.651144,1.323032,4.339220
63779,55.982559,37.413028,0.223858,-0.914585,9.265561,0.000000,-0.015267,-0.015267,-5.651144,1.323032,4.339220
63879,55.982559,37.413028,0.204704,-0.914585,9.264364,0.000000,-0.015267,0.000000,-5.651238,1.322691,4.332258
63979,55.982559,37.413028,0.227449,-0.909797,9.253590,0.000000,-0.015267,-0.015267,-5.644256,1.322438,4.332242
64079,55.982559,37.413028,0.209493,-0.912191,9.273941,-0.015267,-0.015267,-0.015267,-5.651238,1.322691,4.332258
64179,55.982559,37.413028,0.214281,-0.918176,9.265561,0.000000,-0.015267,-0.015267,-5.651238,1.322691,4.332258
64279,55.982559,37.413028,0.213084,-0.915782,9.264364,0.000000,-0.015267,-0.015267,-5.651144,1.323032,4.339220
64379,55.982559,37.413028,0.216675,-0.908600,9.265561,0.000000,-0.015267,0.000000,-5.651144,1.323032,4.339220
64479,55.982559,37.413028,0.208296,-0.908600,9.267955,0.000000,-0.015267,0.000000,-5.644256,1.322438,4.332242
64579,55.982559,37.413028,0.209493,-0.918176,9.246407,0.000000,-0.015267,-0.015267,-5.644509,1.315457,4.331897
64679,55.982559,37.413028,0.211887,-0.912191,9.271547,-0.015267,0.000000,-0.015267,-5.644509,1.315457,4.331897
64779,55.982559,37.413028,0.210690,-0.908600,9.264364,0.000000,0.000000,-0.015267,-5.637526,1.315203,4.331882
64879,55.982559,37.413028,0.207098,-0.922965,9.272744,-0.015267,-0.015267,-0.015267,-5.644509,1.315457,4.331897
64979,55.982559,37.413028,0.211887,-0.914585,9.275137,0.000000,0.000000,0.000000,-5.644509,1.315457,4.331897
65079,55.982559,37.413028,0.208296,-0.915782,9.272744,-0.015267,-0.015267,0.000000,-5.644509,1.315457,4.331897
65179,55.982559,37.413028,0.215478,-0.910994,9.270349,0.000000,0.000000,-0.015267,-5.644256,1.322438,4.332242
65280,55.982559,37.413028,0.214281,-0.913388,9.264364,0.000000,0.000000,-0.015267,-5.644509,1.315457,4.331897
65380,55.982559,37.413028,0.213084,-0.920571,9.265561,0.000000,-0.015267,-0.015267,-5.644256,1.322438,4.332242
65480,55.982559,37.413028,0.204704,-0.913388,9.267955,0.000000,0.000000,-0.015267,-5.644256,1.322438,4.332242
65601,55.982559,37.413028,0.213084,-0.914585,9.269152,0.000000,-0.015267,-0.015267,-5.637273,1.322184,4.332228
65701,55.982559,37.413028,0.211887,-0.914585,9.273941,0.000000,-0.015267,0.000000,-5.637366,1.321843,4.325265
65801,55.982559,37.413028,0.211887,-0.920571,9.261970,0.000000,-0.015267,-0.015267,-5.637366,1.321843,4.325265
65901,55.982559,37.413028,0.210690,-0.908600,9.265561,0.000000,-0.015267,-0.015267,-5.637366,1.321843,4.325265
66001,55.982559,37.413028,0.208296,-0.906205,9.265561,0.000000,0.000000,0.000000,-5.637366,1.321843,4.325265
66101,55.982559,37.413028,0.203507,-0.927753,9.267955,0.000000,-0.015267,-0.015267,-5.637619,1.314863,4.324920
66201,55.982559,37.413028,0.210690,-0.919373,9.260772,0.000000,-0.015267,-0.015267,-5.637526,1.315203,4.331882
66301,55.982559,37.413028,0.210690,-0.910994,9.259575,-0.015267,-0.015267,0.000000,-5.637619,1.314863,4.324920
66401,55.982559,37.413028,0.205901,-0.919373,9.257182,-0.015267,-0.015267,-0.015267,-5.644855,1.308135,4.324588
66501,55.982559,37.413028,0.214281,-0.920571,9.264364,0.000000,-0.015267,-0.015267,-5.644855,1.308135,4.324588
66601,55.982559,37.413028,0.210690,-0.924162,9.261970,0.000000,0.000000,-0.015267,-5.644855,1.308135,4.324588
66701,55.982559,37.413028,0.211887,-0.918176,9.265561,0.000000,0.000000,-0.015267,-5.644855,1.308135,4.324588
66801,55.982559,37.413028,0.205901,-0.918176,9.266758,0.000000,-0.015267,-0.015267,-5.637872,1.307882,4.324573
66902,55.982559,37.413028,0.211887,-0.920571,9.272744,0.000000,0.000000,-0.015267,-5.637780,1.308222,4.331536
67002,55.982559,37.413028,0.219069,-0.919373,9.263167,-0.015267,-0.015267,-0.015267,-5.644762,1.308476,4.331550
67102,55.982559,37.413028,0.213084,-0.913388,9.260772,-0.015267,-0.015267,-0.015267,-5.645016,1.301495,4.331204
67202,55.982559,37.413028,0.217872,-0.912191,9.267955,0.000000,0.000000,0.000000,-5.645016,1.301495,4.331204
67302,55.982559,37.413028,0.215478,-0.907402,9.264364,0.000000,0.000000,0.000000,-5.638033,1.301241,4.331191
67402,55.982559,37.413028,0.223858,-0.909797,9.275137,-0.015267,0.000000,0.000000,-5.631051,1.300988,4.331176
67502,55.982559,37.413028,0.207098,-0.918176,9.266758,0.000000,0.000000,0.000000,-5.631051,1.300988,4.331176
67617,55.982559,37.413028,0.213084,-0.909797,9.270349,0.000000,-0.015267,0.000000,-5.631051,1.300988,4.331176
67717,55.982559,37.413028,0.216675,-0.916979,9.269152,-0.015267,-0.015267,-0.015267,-5.631051,1.300988,4.331176
67817,55.982559,37.413028,0.210690,-0.915782,9.261970,-0.015267,-0.015267,-0.015267,-5.631051,1.300988,4.331176
67917,55.982559,37.413028,0.216675,-0.921768,9.260772,-0.015267,-0.015267,0.000000,-5.631051,1.300988,4.331176
68017,55.982559,37.413028,0.215478,-0.921768,9.265561,-0.015267,-0.015267,0.000000,-5.630798,1.307969,4.331521
68117,55.982559,37.413028,0.217872,-0.912191,9.266758,0.000000,0.000000,0.000000,-5.630798,1.307969,4.331521
68217,55.982559,37.413028,0.220267,-0.909797,9.255984,0.000000,-0.015267,-0.015267,-5.637780,1.308222,4.331536
68317,55.982559,37.413028,0.213084,-0.916979,9.260772,0.000000,-0.015267,0.000000,-5.630798,1.307969,4.331521
68417,55.982559,37.413028,0.207098,-0.915782,9.258378,-0.015267,-0.015267,-0.015267,-5.637526,1.315203,4.331882
68517,55.982559,37.413028,0.210690,-0.921768,9.266758,0.000000,0.000000,-0.015267,-5.637526,1.315203,4.331882
68617,55.982559,37.413028,0.222661,-0.918176,9.270349,-0.015267,0.000000,-0.015267,-5.637619,1.314863,4.324920
68717,55.982559,37.413028,0.219069,-0.914585,9.259575,0.000000,-0.015267,0.000000,-5.644602,1.315115,4.324934
68817,55.982559,37.413028,0.223858,-0.915782,9.264364,0.000000,-0.015267,-0.015267,-5.644349,1.322096,4.325281
68917,55.982559,37.413028,0.210690,-0.919373,9.259575,0.000000,-0.015267,0.000000,-5.637619,1.314863,4.324920
69017,55.982559,37.413028,0.220267,-0.913388,9.253590,-0.015267,-0.015267,-0.015267,-5.637366,1.321843,4.325265
69117,55.982559,37.413028,0.210690,-0.915782,9.272744,0.000000,-0.015267,-0.015267,-5.637619,1.314863,4.324920
69217,55.982559,37.413028,0.215478,-0.908600,9.266758,-0.015267,-0.015267,0.000000,-5.637619,1.314863,4.324920
69317,55.982559,37.413028,0.213084,-0.919373,9.255984,-0.015267,-0.015267,-0.015267,-5.637619,1.314863,4.324920
69417,55.982559,37.413028,0.221464,-0.913388,9.271547,0.000000,-0.015267,-0.015267,-5.637366,1.321843,4.325265
69582,55.982559,37.413028,nan,nan,nan,nan,nan,nan,nan,nan,nan
69682,55.982559,37.413028,0.221464,-0.915782,9.265561,-0.015267,-0.015267,0.000000,-5.637366,1.321843,4.325265
69782,55.982559,37.413028,0.214281,-0.906205,9.266758,0.000000,-0.015267,-0.015267,-5.637366,1.321843,4.325265
69882,55.982559,37.413028,0.210690,-0.915782,9.255984,0.000000,-0.015267,-0.015267,-5.637366,1.321843,4.325265
69982,55.982559,37.413028,0.219069,-0.913388,9.267955,-0.015267,-0.015267,-0.015267,-5.637366,1.321843,4.325265
70082,55.982559,37.413028,0.216675,-0.907402,9.265561,0.000000,-0.015267,-0.015267,-5.637619,1.314863,4.324920
70182,55.982559,37.413028,0.216675,-0.916979,9.259575,0.000000,-0.015267,0.000000,-5.630477,1.321250,4.318288
70282,55.982559,37.413028,0.220267,-0.920571,9.252393,0.000000,0.000000,-0.015267,-5.637460,1.321503,4.318304
70382,55.982559,37.413028,0.208296,-0.912191,9.252393,0.000000,-0.015267,-0.015267,-5.637460,1.321503,4.318304
70482,55.982559,37.413028,0.204704,-0.924162,9.248802,0.000000,-0.015267,0.000000,-5.637712,1.314522,4.317957
70582,55.982559,37.413028,0.207098,-0.912191,9.260772,0.000000,-0.015267,-0.015267,-5.644695,1.314774,4.317972
70682,55.982559,37.413028,0.203507,-0.922965,9.263167,-0.015267,-0.015267,-0.015267,-5.644695,1.314774,4.317972
70782,55.982559,37.413028,0.216675,-0.926556,9.259575,0.000000,-0.015267,-0.015267,-5.644695,1.314774,4.317972
70882,55.982559,37.413028,0.215478,-0.921768,9.267955,-0.015267,0.000000,-0.015267,-5.644948,1.307793,4.317626
70982,55.982559,37.413028,0.213084,-0.915782,9.267955,-0.015267,-0.015267,-0.015267,-5.644948,1.307793,4.317626
71083,55.982559,37.413028,0.209493,-0.910994,9.264364,-0.015267,0.000000,-0.015267,-5.644695,1.314774,4.317972
71183,55.982559,37.413028,0.215478,-0.906205,9.258378,-0.015267,0.000000,0.000000,-5.637712,1.314522,4.317957
71283,55.982559,37.413028,0.213084,-0.909797,9.260772,-0.015267,-0.015267,0.000000,-5.637965,1.307541,4.317612
71383,55.982559,37.413028,0.207098,-0.909797,9.261970,0.000000,0.000000,-0.015267,-5.638057,1.307200,4.310649
71483,55.982559,37.413028,nan,nan,nan,nan,nan,nan,nan,nan,nan
71583,55.982559,37.413028,nan,nan,nan,nan,nan,nan,nan,nan,nan
71683,55.982559,37.413028,0.216675,-0.912191,9.258378,0.000000,-0.015267,-0.015267,-5.631074,1.306948,4.310635
71783,55.982559,37.413028,0.213084,-0.915782,9.253590,0.000000,-0.015267,-0.015267,-5.637804,1.314181,4.310995
71883,55.982559,37.413028,0.204704,-0.914585,9.270349,0.000000,-0.015267,0.000000,-5.631074,1.306948,4.310635
71983,55.982559,37.413028,0.213084,-0.919373,9.267955,-0.015267,-0.015267,0.000000,-5.631074,1.306948,4.310635
72083,55.982559,37.413028,0.216675,-0.910994,9.275137,0.000000,-0.015267,0.000000,-5.631074,1.306948,4.310635
72183,55.982559,37.413028,0.213084,-0.910994,9.270349,0.000000,-0.015267,-0.015267,-5.631074,1.306948,4.310635
72283,55.982559,37.413028,0.217872,-0.915782,9.273941,-0.015267,-0.015267,-0.015267,-5.624092,1.306696,4.310620
72383,55.982559,37.413028,0.231040,-0.919373,9.264364,0.000000,-0.015267,0.000000,-5.630822,1.313929,4.310979
72483,55.982559,37.413028,0.219069,-0.914585,9.261970,0.000000,-0.015267,-0.015267,-5.630569,1.320910,4.311325
72583,55.982559,37.413028,0.220267,-0.918176,9.267955,0.000000,0.000000,0.000000,-5.630569,1.320910,4.311325
72683,55.982559,37.413028,0.209493,-0.914585,9.265561,0.000000,-0.015267,-0.015267,-5.630822,1.313929,4.310979
72783,55.982559,37.413028,0.209493,-0.916979,9.264364,0.000000,0.000000,-0.015267,-5.630822,1.313929,4.310979
72883,55.982559,37.413028,0.209493,-0.910994,9.264364,0.000000,-0.015267,-0.015267,-5.630915,1.313588,4.304018
72983,55.982559,37.413028,0.210690,-0.916979,9.273941,0.000000,0.000000,-0.015267,-5.630822,1.313929,4.310979
73083,55.982559,37.413028,0.213084,-0.912191,9.276335,0.000000,-0.015267,-0.015267,-5.623839,1.313677,4.310965
73183,55.982559,37.413028,0.208296,-0.915782,9.271547,0.000000,-0.015267,-0.015267,-5.630822,1.313929,4.310979
73283,55.982559,37.413028,0.219069,-0.920571,9.269152,0.000000,-0.015267,0.000000,-5.630915,1.313588,4.304018
73383,55.982559,37.413028,0.217872,-0.909797,9.265561,0.000000,-0.015267,0.000000,-5.630663,1.320570,4.304362
73483,55.982559,37.413028,nan,nan,nan,nan,nan,nan,nan,nan,nan
73583,55.982559,37.413028,nan,nan,nan,nan,nan,nan,nan,nan,nan
73683,55.982559,37.413028,0.207098,-0.918176,9.279926,0.000000,0.000000,0.000000,-5.630915,1.313588,4.304018
73783,55.982559,37.413028,0.217872,-0.909797,9.259575,0.000000,0.000000,-0.015267,-5.630915,1.313588,4.304018
73883,55.982559,37.413028,0.210690,-0.914585,9.270349,0.000000,-0.015267,-0.015267,-5.630915,1.313588,4.304018
73984,55.982559,37.413028,0.211887,-0.913388,9.267955,-0.015267,-0.015267,-0.015267,-5.630915,1.313588,4.304018
74084,55.982559,37.413028,0.216675,-0.913388,9.281124,0.000000,-0.015267,-0.015267,-5.630915,1.313588,4.304018
74184,55.982559,37.413028,0.222661,-0.927753,9.270349,0.000000,0.000000,-0.015267,-5.630663,1.320570,4.304362
74284,55.982559,37.413028,0.216675,-0.922965,9.270349,0.000000,-0.015267,0.000000,-5.630915,1.313588,4.304018
74384,55.982559,37.413028,0.217872,-0.913388,9.263167,-0.015267,-0.015267,-0.015267,-5.637646,1.320821,4.304378
74484,55.982559,37.413028,0.213084,-0.914585,9.259575,-0.015267,-0.015267,-0.015267,-5.637646,1.320821,4.304378
74584,55.982559,37.413028,0.213084,-0.910994,9.255984,0.000000,0.000000,-0.015267,-5.637646,1.320821,4.304378
74684,55.982559,37.413028,0.219069,-0.918176,9.277532,-0.015267,-0.015267,-0.015267,-5.630663,1.320570,4.304362
74784,55.982559,37.413028,0.213084,-0.919373,9.271547,0.000000,0.000000,-0.015267,-5.637646,1.320821,4.304378
74884,55.982559,37.413028,0.202310,-0.912191,9.270349,0.000000,-0.015267,-0.015267,-5.630915,1.313588,4.304018
74984,55.982559,37.413028,0.219069,-0.918176,9.266758,-0.015267,0.000000,-0.015267,-5.637897,1.313840,4.304033
75084,55.982559,37.413028,0.210690,-0.914585,9.255984,-0.015267,0.000000,0.000000,-5.637897,1.313840,4.304033
75184,55.982559,37.413028,0.220267,-0.912191,9.261970,0.000000,-0.015267,-0.015267,-5.637897,1.313840,4.304033
75284,55.982559,37.413028,0.204704,-0.914585,9.255984,0.000000,0.000000,-0.015267,-5.637897,1.313840,4.304033
75384,55.982559,37.413028,0.214281,-0.918176,9.266758,-0.015267,-0.015267,0.000000,-5.638149,1.306859,4.303687
75484,55.982559,37.413028,0.213084,-0.918176,9.267955,-0.015267,-0.015267,-0.015267,-5.637897,1.313840,4.304033
75614,55.982559,37.413028,0.215478,-0.919373,9.260772,0.000000,-0.015267,0.000000,-5.637897,1.313840,4.304033
75714,55.982559,37.413028,0.208296,-0.922965,9.253590,-0.015267,-0.015267,-0.015267,-5.638149,1.306859,4.303687
75814,55.982559,37.413028,0.216675,-0.918176,9.251195,0.000000,-0.015267,0.000000,-5.638241,1.306518,4.296724
75914,55.982559,37.413028,0.216675,-0.924162,9.272744,0.000000,-0.015267,-0.015267,-5.638241,1.306518,4.296724
76014,55.982559,37.413028,0.221464,-0.916979,9.264364,0.000000,0.000000,-0.015267,-5.637990,1.313500,4.297070
76114,55.982559,37.413028,0.216675,-0.909797,9.277532,-0.015267,-0.015267,-0.015267,-5.637990,1.313500,4.297070
76214,55.982559,37.413028,0.219069,-0.912191,9.263167,0.000000,-0.015267,-0.015267,-5.644721,1.320732,4.297431
76314,55.982559,37.413028,0.222661,-0.909797,9.277532,0.000000,0.000000,0.000000,-5.637646,1.320821,4.304378
76414,55.982559,37.413028,0.220267,-0.910994,9.263167,0.000000,-0.015267,-0.015267,-5.637646,1.320821,4.304378
76514,55.982559,37.413028,0.222661,-0.913388,9.271547,0.000000,0.000000,-0.015267,-5.637646,1.320821,4.304378
76614,55.982559,37.413028,0.222661,-0.921768,9.258378,0.000000,-0.015267,0.000000,-5.637646,1.320821,4.304378
76715,55.982559,37.413028,0.216675,-0.915782,9.257182,-0.015267,0.000000,-0.015267,-5.637897,1.313840,4.304033
76815,55.982559,37.413028,0.203507,-0.915782,9.265561,0.000000,-0.015267,0.000000,-5.637897,1.313840,4.304033
76915,55.982559,37.413028,0.217872,-0.910994,9.264364,-0.015267,-0.015267,-0.015267,-5.637739,1.320480,4.297416
77015,55.982559,37.413028,0.215478,-0.916979,9.270349,0.000000,-0.015267,-0.015267,-5.637646,1.320821,4.304378
77115,55.982559,37.413028,0.204704,-0.918176,9.261970,0.000000,-0.015267,0.000000,-5.637990,1.313500,4.297070
77215,55.982559,37.413028,0.214281,-0.907402,9.248802,0.000000,-0.015267,-0.015267,-5.637897,1.313840,4.304033
77315,55.982559,37.413028,0.215478,-0.916979,9.265561,0.000000,-0.015267,-0.015267,-5.637990,1.313500,4.297070
77415,55.982559,37.413028,0.213084,-0.920571,9.261970,0.000000,-0.015267,-0.015267,-5.637897,1.313840,4.304033
77578,55.982559,37.413028,nan,nan,nan,nan,nan,nan,nan,nan,nan
77678,55.982559,37.413028,0.213084,-0.908600,9.260772,-0.015267,-0.015267,-0.015267,-5.637990,1.313500,4.297070
77778,55.982559,37.413028,0.211887,-0.903811,9.263167,-0.015267,0.000000,0.000000,-5.631007,1.313248,4.297054
77878,55.982559,37.413028,0.211887,-0.919373,9.259575,-0.015267,-0.015267,-0.015267,-5.637990,1.313500,4.297070
77978,55.982559,37.413028,0.213084,-0.916979,9.260772,0.000000,-0.015267,-0.015267,-5.637990,1.313500,4.297070
78078,55.982559,37.413028,0.216675,-0.919373,9.260772,0.000000,0.000000,0.000000,-5.637990,1.313500,4.297070
78178,55.982559,37.413028,0.214281,-0.909797,9.261970,0.000000,-0.015267,0.000000,-5.637990,1.313500,4.297070
78278,55.982559,37.413028,0.216675,-0.930147,9.273941,0.000000,-0.015267,0.000000,-5.644973,1.313751,4.297085
78379,55.982559,37.413028,0.213084,-0.913388,9.264364,0.000000,0.000000,-0.015267,-5.645225,1.306770,4.296739
78479,55.982559,37.413028,0.203507,-0.912191,9.254787,0.000000,0.000000,-0.015267,-5.638241,1.306518,4.296724
78579,55.982559,37.413028,0.214281,-0.915782,9.264364,0.000000,0.000000,-0.015267,-5.638241,1.306518,4.296724
78679,55.982559,37.413028,0.217872,-0.908600,9.265561,0.000000,-0.015267,-0.015267,-5.638241,1.306518,4.296724
78779,55.982559,37.413028,0.216675,-0.908600,9.269152,0.000000,-0.015267,0.000000,-5.631259,1.306267,4.296709
78879,55.982559,37.413028,0.214281,-0.914585,9.266758,-0.015267,0.000000,-0.015267,-5.631007,1.313248,4.297054
78979,55.982559,37.413028,0.213084,-0.915782,9.253590,-0.015267,-0.015267,0.000000,-5.637990,1.313500,4.297070
79079,55.982559,37.413028,0.205901,-0.919373,9.272744,0.000000,-0.015267,0.000000,-5.637990,1.313500,4.297070
79179,55.982559,37.413028,0.208296,-0.916979,9.264364,-0.015267,-0.015267,0.000000,-5.638241,1.306518,4.296724
79279,55.982559,37.413028,0.207098,-0.910994,9.271547,-0.015267,-0.015267,-0.015267,-5.638241,1.306518,4.296724
79379,55.982559,37.413028,0.214281,-0.918176,9.251195,0.000000,0.000000,-0.015267,-5.638241,1.306518,4.296724
79479,55.982559,37.413028,nan,nan,nan,nan,nan,nan,nan,nan,nan
79579,55.982559,37.413028,nan,nan,nan,nan,nan,nan,nan,nan,nan
79679,55.982559,37.413028,0.219069,-0.919373,9.264364,-0.015267,-0.015267,-0.015267,-5.631259,1.306267,4.296709
79779,55.982559,37.413028,0.217872,-0.901417,9.270349,-0.015267,-0.015267,0.000000,-5.624184,1.306356,4.303657
79879,55.982559,37.413028,0.216675,-0.915782,9.273941,0.000000,-0.015267,0.000000,-5.623932,1.313337,4.304002
79979,55.982559,37.413028,0.211887,-0.916979,9.267955,-0.015267,0.000000,-0.015267,-5.630915,1.313588,4.304018
80079,55.982559,37.413028,0.223858,-0.910994,9.263167,0.000000,-0.015267,0.000000,-5.630663,1.320570,4.304362
80179,55.982559,37.413028,0.209493,-0.912191,9.261970,-0.015267,-0.015267,0.000000,-5.630663,1.320570,4.304362
80279,55.982559,37.413028,0.217872,-0.921768,9.265561,0.000000,0.000000,-0.015267,-5.630915,1.313588,4.304018
80379,55.982559,37.413028,0.207098,-0.914585,9.272744,0.000000,0.000000,-0.015267,-5.630915,1.313588,4.304018
80479,55.982559,37.413028,0.199916,-0.920571,9.276335,-0.015267,-0.015267,-0.015267,-5.638149,1.306859,4.303687
80579,55.982559,37.413028,0.205901,-0.918176,9.261970,0.000000,0.000000,0.000000,-5.638149,1.306859,4.303687
80679,55.982559,37.413028,0.209493,-0.924162,9.258378,0.000000,0.000000,0.000000,-5.638149,1.306859,4.303687
80779,55.982559,37.413028,0.209493,-0.914585,9.266758,0.000000,-0.015267,-0.015267,-5.638149,1.306859,4.303687
80879,55.982559,37.413028,0.210690,-0.909797,9.273941,0.000000,-0.015267,-0.015267,-5.638149,1.306859,4.303687
80979,55.982559,37.413028,0.208296,-0.909797,9.247605,0.000000,-0.015267,-0.015267,-5.638401,1.299878,4.303341
81079,55.982559,37.413028,0.216675,-0.910994,9.269152,0.000000,-0.015267,-0.015267,-5.631166,1.306608,4.303672
81179,55.982559,37.413028,0.215478,-0.915782,9.266758,-0.015267,-0.015267,0.000000,-5.631166,1.306608,4.303672
81280,55.982559,37.413028,0.205901,-0.912191,9.270349,-0.015267,0.000000,-0.015267,-5.631166,1.306608,4.303672
81380,55.982559,37.413028,0.210690,-0.910994,9.271547,-0.015267,0.000000,-0.015267,-5.630915,1.313588,4.304018
81480,55.982559,37.413028,0.209493,-0.918176,9.261970,-0.015267,-0.015267,0.000000,-5.638149,1.306859,4.303687
81613,55.982559,37.413028,0.213084,-0.913388,9.261970,-0.015267,-0.015267,0.000000,-5.637897,1.313840,4.304033
81713,55.982559,37.413028,0.210690,-0.907402,9.269152,0.000000,0.000000,-0.015267,-5.637897,1.313840,4.304033
81813,55.982559,37.413028,0.214281,-0.922965,9.275137,0.000000,0.000000,-0.015267,-5.637897,1.313840,4.304033
81913,55.982559,37.413028,0.221464,-0.919373,9.255984,0.000000,-0.015267,-0.015267,-5.637897,1.313840,4.304033
82013,55.982559,37.413028,0.213084,-0.906205,9.269152,-0.015267,-0.015267,-0.015267,-5.630915,1.313588,4.304018
82113,55.982559,37.413028,0.214281,-0.915782,9.260772,0.000000,0.000000,-0.015267,-5.630915,1.313588,4.304018
82213,55.982559,37.413028,0.210690,-0.930147,9.275137,0.000000,-0.015267,-0.015267,-5.637646,1.320821,4.304378
82313,55.982559,37.413028,0.211887,-0.910994,9.270349,-0.015267,-0.015267,-0.015267,-5.630663,1.320570,4.304362
82413,55.982559,37.413028,0.209493,-0.924162,9.249999,-0.015267,0.000000,0.000000,-5.637646,1.320821,4.304378
82513,55.982559,37.413028,0.208296,-0.913388,9.275137,-0.015267,-0.015267,0.000000,-5.637897,1.313840,4.304033
82613,55.982559,37.413028,0.208296,-0.915782,9.260772,0.000000,-0.015267,0.000000,-5.637897,1.313840,4.304033
82713,55.982559,37.413028,0.216675,-0.921768,9.257182,0.000000,-0.015267,-0.015267,-5.637990,1.313500,4.297070
82813,55.982559,37.413028,0.214281,-0.914585,9.263167,-0.015267,-0.015267,-0.015267,-5.637739,1.320480,4.297416
82913,55.982559,37.413028,0.208296,-0.915782,9.276335,0.000000,-0.015267,-0.015267,-5.637739,1.320480,4.297416
83013,55.982559,37.413028,0.209493,-0.914585,9.258378,0.000000,0.000000,0.000000,-5.637739,1.320480,4.297416
83113,55.982559,37.413028,0.219069,-0.909797,9.263167,0.000000,-0.015267,0.000000,-5.637739,1.320480,4.297416
83213,55.982559,37.413028,0.208296,-0.914585,9.270349,-0.015267,0.000000,-0.015267,-5.630663,1.320570,4.304362
83313,55.982559,37.413028,0.207098,-0.914585,9.276335,-0.015267,0.000000,0.000000,-5.637646,1.320821,4.304378
83414,55.982559,37.413028,0.229843,-0.922965,9.272744,0.000000,-0.015267,-0.015267,-5.637394,1.327802,4.304724
83573,55.982559,37.413028,nan,nan,nan,nan,nan,nan,nan,nan,nan
83673,55.982559,37.413028,0.219069,-0.915782,9.271547,0.000000,-0.015267,-0.015267,-5.630505,1.327210,4.297745
83773,55.982559,37.413028,0.208296,-0.908600,9.271547,-0.015267,-0.015267,-0.015267,-5.630505,1.327210,4.297745
83873,55.982559,37.413028,0.221464,-0.909797,9.276335,0.000000,-0.015267,0.000000,-5.630505,1.327210,4.297745
83973,55.982559,37.413028,0.210690,-0.919373,9.270349,-0.015267,-0.015267,0.000000,-5.630505,1.327210,4.297745
84073,55.982559,37.413028,0.216675,-0.916979,9.273941,0.000000,0.000000,-0.015267,-5.630505,1.327210,4.297745
84173,55.982559,37.413028,0.211887,-0.927753,9.263167,0.000000,0.000000,-0.015267,-5.637487,1.327461,4.297762
84273,55.982559,37.413028,0.202310,-0.913388,9.276335,0.000000,-0.015267,-0.015267,-5.637487,1.327461,4.297762
84373,55.982559,37.413028,0.210690,-0.910994,9.271547,0.000000,-0.015267,-0.015267,-5.637739,1.320480,4.297416
84473,55.982559,37.413028,0.219069,-0.903811,9.261970,-0.015267,-0.015267,-0.015267,-5.630505,1.327210,4.297745
84573,55.982559,37.413028,0.209493,-0.909797,9.269152,0.000000,0.000000,0.000000,-5.630756,1.320229,4.297400
84673,55.982559,37.413028,0.220267,-0.922965,9.284714,0.000000,-0.015267,0.000000,-5.630756,1.320229,4.297400
84773,55.982559,37.413028,0.214281,-0.913388,9.259575,-0.015267,-0.015267,-0.015267,-5.630849,1.319889,4.290437
84873,55.982559,37.413028,0.220267,-0.912191,9.270349,0.000000,-0.015267,-0.015267,-5.630598,1.326870,4.290782
84973,55.982559,37.413028,0.214281,-0.919373,9.259575,0.000000,0.000000,0.000000,-5.630598,1.326870,4.290782
85073,55.982559,37.413028,0.208296,-0.906205,9.282320,0.000000,-0.015267,-0.015267,-5.623275,1.326526,4.289980
85173,55.982559,37.413028,0.216675,-0.919373,9.270349,0.000000,0.000000,-0.015267,-5.630601,1.319455,4.282689
85273,55.982559,37.413028,0.210690,-0.914585,9.271547,0.000000,0.000000,-0.015267,-5.630601,1.319455,4.282689
85373,55.982559,37.413028,0.211887,-0.919373,9.271547,-0.015267,-0.015267,-0.015267,-5.637925,1.319799,4.283490
85473,55.982559,37.413028,nan,nan,nan,nan,nan,nan,nan,nan,nan
85573,55.982559,37.413028,nan,nan,nan,nan,nan,nan,nan,nan,nan
85673,55.982559,37.413028,0.214281,-0.916979,9.261970,0.000000,0.000000,0.000000,-5.644908,1.320049,4.283505
85773,55.982559,37.413028,0.203507,-0.920571,9.255984,0.000000,0.000000,-0.015267,-5.644908,1.320049,4.283505
85873,55.982559,37.413028,0.213084,-0.907402,9.258378,0.000000,-0.015267,0.000000,-5.644908,1.320049,4.283505
85974,55.982559,37.413028,0.203507,-0.908600,9.255984,0.000000,-0.015267,0.000000,-5.645158,1.313068,4.283160
86074,55.982559,37.413028,0.210690,-0.905008,9.269152,0.000000,-0.015267,0.000000,-5.638175,1.312818,4.283144
86174,55.982559,37.413028,0.207098,-0.921768,9.276335,0.000000,-0.015267,-0.015267,-5.638175,1.312818,4.283144
86274,55.982559,37.413028,0.214281,-0.913388,9.270349,-0.015267,-0.015267,0.000000,-5.638175,1.312818,4.283144
86374,55.982559,37.413028,0.214281,-0.912191,9.269152,-0.015267,-0.015267,-0.015267,-5.638175,1.312818,4.283144
86474,55.982559,37.413028,0.215478,-0.907402,9.271547,0.000000,-0.015267,-0.015267,-5.630942,1.319548,4.283474
86574,55.982559,37.413028,0.211887,-0.918176,9.259575,-0.015267,-0.015267,-0.015267,-5.637925,1.319799,4.283490
86674,55.982559,37.413028,0.202310,-0.913388,9.264364,-0.015267,-0.015267,0.000000,-5.638175,1.312818,4.283144
86774,55.982559,37.413028,0.214281,-0.915782,9.275137,-0.015267,0.000000,-0.015267,-5.645158,1.313068,4.283160
86874,55.982559,37.413028,0.204704,-0.924162,9.265561,-0.015267,-0.015267,-0.015267,-5.645158,1.313068,4.283160
86974,55.982559,37.413028,0.219069,-0.910994,9.267955,0.000000,0.000000,-0.015267,-5.645158,1.313068,4.283160
87074,55.982559,37.413028,0.216675,-0.915782,9.260772,0.000000,-0.015267,-0.015267,-5.638175,1.312818,4.283144
87174,55.982559,37.413028,0.228646,-0.908600,9.266758,0.000000,0.000000,0.000000,-5.637925,1.319799,4.283490
87274,55.982559,37.413028,0.215478,-0.920571,9.266758,0.000000,0.000000,0.000000,-5.638018,1.319458,4.276527
87374,55.982559,37.413028,0.215478,-0.924162,9.259575,-0.015267,-0.015267,-0.015267,-5.638018,1.319458,4.276527
87474,55.982559,37.413028,nan,nan,nan,nan,nan,nan,nan,nan,nan
87574,55.982559,37.413028,nan,nan,nan,nan,nan,nan,nan,nan,nan
87674,55.982559,37.413028,0.220267,-0.912191,9.267955,0.000000,-0.015267,-0.015267,-5.630445,1.326096,4.276072
87774,55.982559,37.413028,0.213084,-0.910994,9.264364,-0.015267,-0.015267,-0.015267,-5.630445,1.326096,4.276072
87874,55.982559,37.413028,0.213084,-0.925359,9.271547,-0.015267,-0.015267,-0.015267,-5.638018,1.319458,4.276527
87974,55.982559,37.413028,0.215478,-0.915782,9.254787,-0.015267,-0.015267,-0.015267,-5.638018,1.319458,4.276527
88074,55.982559,37.413028,0.210690,-0.913388,9.263167,0.000000,-0.015267,-0.015267,-5.645001,1.319708,4.276543
88174,55.982559,37.413028,0.217872,-0.906205,9.277532,0.000000,-0.015267,0.000000,-5.638018,1.319458,4.276527
88274,55.982559,37.413028,0.215478,-0.907402,9.278729,0.000000,0.000000,-0.015267,-5.638018,1.319458,4.276527
88374,55.982559,37.413028,0.215478,-0.918176,9.282320,0.000000,-0.015267,0.000000,-5.637768,1.326439,4.276874
88474,55.982559,37.413028,0.214281,-0.910994,9.272744,-0.015267,-0.015267,-0.015267,-5.630694,1.319115,4.275727
88574,55.982559,37.413028,0.211887,-0.918176,9.270349,0.000000,-0.015267,-0.015267,-5.630942,1.319548,4.283474
88674,55.982559,37.413028,0.208296,-0.916979,9.263167,0.000000,-0.015267,-0.015267,-5.630942,1.319548,4.283474
88774,55.982559,37.413028,0.222661,-0.908600,9.271547,-0.015267,0.000000,0.000000,-5.637925,1.319799,4.283490
88875,55.982559,37.413028,0.211887,-0.913388,9.258378,-0.015267,0.000000,-0.015267,-5.630942,1.319548,4.283474
88975,55.982559,37.413028,0.214281,-0.922965,9.260772,0.000000,-0.015267,-0.015267,-5.638018,1.319458,4.276527
89075,55.982559,37.413028,0.216675,-0.914585,9.266758,0.000000,-0.015267,-0.015267,-5.638018,1.319458,4.276527
89175,55.982559,37.413028,0.215478,-0.916979,9.263167,-0.015267,-0.015267,-0.015267,-5.630785,1.326189,4.276856
89275,55.982559,37.413028,0.207098,-0.918176,9.265561,0.000000,-0.015267,0.000000,-5.637768,1.326439,4.276874
89375,55.982559,37.413028,0.215478,-0.909797,9.270349,-0.015267,-0.015267,-0.015267,-5.631035,1.319208,4.276511
89477,55.982559,37.413028,0.207098,-0.910994,9.269152,0.000000,0.000000,0.000000,-5.630601,1.319455,4.282689
89625,55.982559,37.413028,0.214281,-0.913388,9.257182,0.000000,-0.015267,0.000000,-5.630601,1.319455,4.282689
89725,55.982559,37.413028,0.210690,-0.910994,9.267955,0.000000,0.000000,0.000000,-5.630601,1.319455,4.282689
89825,55.982559,37.413028,0.217872,-0.921768,9.259575,0.000000,-0.015267,-0.015267,-5.630601,1.319455,4.282689
89925,55.982559,37.413028,0.214281,-0.906205,9.271547,-0.015267,0.000000,-0.015267,-5.630601,1.319455,4.282689
90025,55.982559,37.413028,0.208296,-0.913388,9.267955,-0.015267,0.000000,-0.015267,-5.623619,1.319205,4.282673
90125,55.982559,37.413028,0.217872,-0.916979,9.265561,0.000000,-0.015267,-0.015267,-5.623619,1.319205,4.282673
90225,55.982559,37.413028,0.199916,-0.910994,9.271547,0.000000,-0.015267,-0.015267,-5.630852,1.312475,4.282343
90326,55.982559,37.413028,0.216675,-0.914585,9.259575,-0.015267,0.000000,-0.015267,-5.630852,1.312475,4.282343
90426,55.982559,37.413028,0.219069,-0.915782,9.275137,-0.015267,-0.015267,0.000000,-5.630852,1.312475,4.282343
90526,55.982559,37.413028,0.199916,-0.916979,9.246407,-0.015267,0.000000,-0.015267,-5.630852,1.312475,4.282343
90626,55.982559,37.413028,0.217872,-0.909797,9.260772,-0.015267,-0.015267,0.000000,-5.630852,1.312475,4.282343
90726,55.982559,37.413028,0.208296,-0.919373,9.266758,-0.015267,0.000000,-0.015267,-5.638175,1.312818,4.283144
90826,55.982559,37.413028,0.223858,-0.907402,9.276335,0.000000,-0.015267,-0.015267,-5.630601,1.319455,4.282689
90926,55.982559,37.413028,0.216675,-0.915782,9.257182,-0.015267,-0.015267,-0.015267,-5.630942,1.319548,4.283474
91026,55.982559,37.413028,0.215478,-0.925359,9.260772,0.000000,-0.015267,-0.015267,-5.637925,1.319799,4.283490
91126,55.982559,37.413028,0.214281,-0.914585,9.278729,0.000000,-0.015267,0.000000,-5.630694,1.319115,4.275727
91226,55.982559,37.413028,0.207098,-0.914585,9.263167,0.000000,-0.015267,-0.015267,-5.630694,1.319115,4.275727
91326,55.982559,37.413028,0.213084,-0.921768,9.259575,0.000000,-0.015267,-0.015267,-5.630694,1.319115,4.275727
91426,55.982559,37.413028,0.216675,-0.912191,9.255984,-0.015267,-0.015267,-0.015267,-5.630694,1.319115,4.275727
91590,55.982559,37.413028,nan,nan,nan,nan,nan,nan,nan,nan,nan
91691,55.982559,37.413028,0.213084,-0.915782,9.267955,0.000000,0.000000,0.000000,-5.638018,1.319458,4.276527
91791,55.982559,37.413028,0.205901,-0.919373,9.266758,0.000000,-0.015267,-0.015267,-5.638018,1.319458,4.276527
91891,55.982559,37.413028,0.213084,-0.915782,9.270349,-0.015267,-0.015267,0.000000,-5.637770,1.319024,4.268781
91991,55.982559,37.413028,0.216675,-0.918176,9.275137,0.000000,0.000000,-0.015267,-5.645093,1.319367,4.269580
92091,55.982559,37.413028,0.215478,-0.916979,9.272744,0.000000,0.000000,0.000000,-5.637770,1.319024,4.268781
92191,55.982559,37.413028,0.226252,-0.918176,9.247605,-0.015267,-0.015267,0.000000,-5.637770,1.319024,4.268781
92291,55.982559,37.413028,0.211887,-0.916979,9.271547,-0.015267,0.000000,-0.015267,-5.638110,1.319117,4.269564
92391,55.982559,37.413028,0.214281,-0.919373,9.265561,-0.015267,-0.015267,-0.015267,-5.645093,1.319367,4.269580
92491,55.982559,37.413028,0.214281,-0.914585,9.270349,0.000000,-0.015267,0.000000,-5.645093,1.319367,4.269580
92591,55.982559,37.413028,0.219069,-0.913388,9.263167,0.000000,0.000000,-0.015267,-5.637861,1.326098,4.269909
92691,55.982559,37.413028,0.225055,-0.919373,9.259575,-0.015267,-0.015267,-0.015267,-5.644844,1.326348,4.269926
92791,55.982559,37.413028,0.215478,-0.914585,9.261970,-0.015267,-0.015267,-0.015267,-5.644844,1.326348,4.269926
92891,55.982559,37.413028,0.215478,-0.920571,9.271547,-0.015267,-0.015267,-0.015267,-5.644844,1.326348,4.269926
92991,55.982559,37.413028,0.221464,-0.921768,9.275137,-0.015267,-0.015267,-0.015267,-5.644844,1.326348,4.269926
93091,55.982559,37.413028,0.210690,-0.925359,9.255984,-0.015267,0.000000,0.000000,-5.651733,1.326939,4.276906
93191,55.982559,37.413028,0.210690,-0.908600,9.275137,0.000000,-0.015267,-0.015267,-5.651733,1.326939,4.276906
93291,55.982559,37.413028,0.213084,-0.920571,9.266758,0.000000,-0.015267,-0.015267,-5.651733,1.326939,4.276906
93391,55.982559,37.413028,0.208296,-0.913388,9.266758,0.000000,-0.015267,-0.015267,-5.644751,1.326689,4.276889
93491,55.982559,37.413028,0.210690,-0.907402,9.269152,0.000000,-0.015267,-0.015267,-5.644751,1.326689,4.276889
93633,55.982559,37.413028,0.210690,-0.921768,9.260772,-0.015267,-0.015267,-0.015267,-5.644751,1.326689,4.276889
93733,55.982559,37.413028,0.208296,-0.922965,9.275137,-0.015267,-0.015267,-0.015267,-5.645001,1.319708,4.276543
93833,55.982559,37.413028,0.211887,-0.901417,9.275137,0.000000,-0.015267,-0.015267,-5.637768,1.326439,4.276874
93933,55.982559,37.413028,0.214281,-0.902614,9.271547,0.000000,0.000000,-0.015267,-5.630445,1.326096,4.276072
94033,55.982559,37.413028,0.214281,-0.920571,9.261970,0.000000,-0.015267,-0.015267,-5.637768,1.326439,4.276874
94133,55.982559,37.413028,0.215478,-0.919373,9.263167,0.000000,-0.015267,0.000000,-5.637768,1.326439,4.276874
94233,55.982559,37.413028,0.211887,-0.913388,9.259575,-0.015267,0.000000,-0.015267,-5.644844,1.326348,4.269926
94333,55.982559,37.413028,0.211887,-0.908600,9.282320,-0.015267,-0.015267,0.000000,-5.644844,1.326348,4.269926
94433,55.982559,37.413028,0.208296,-0.914585,9.247605,-0.015267,-0.015267,-0.015267,-5.638110,1.319117,4.269564
94533,55.982559,37.413028,0.217872,-0.918176,9.263167,-0.015267,-0.015267,0.000000,-5.645093,1.319367,4.269580
94633,55.982559,37.413028,0.216675,-0.918176,9.260772,0.000000,0.000000,-0.015267,-5.645093,1.319367,4.269580
94733,55.982559,37.413028,0.209493,-0.919373,9.278729,0.000000,-0.015267,-0.015267,-5.645093,1.319367,4.269580
94833,55.982559,37.413028,0.216675,-0.925359,9.270349,-0.015267,-0.015267,-0.015267,-5.645093,1.319367,4.269580
94934,55.982559,37.413028,0.217872,-0.918176,9.261970,-0.015267,-0.015267,-0.015267,-5.651827,1.326597,4.269943
95034,55.982559,37.413028,0.222661,-0.915782,9.270349,-0.015267,-0.015267,-0.015267,-5.644844,1.326348,4.269926
95134,55.982559,37.413028,0.207098,-0.906205,9.257182,-0.015267,-0.015267,-0.015267,-5.644844,1.326348,4.269926
95234,55.982559,37.413028,0.211887,-0.908600,9.263167,-0.015267,-0.015267,0.000000,-5.644502,1.326255,4.269143
95334,55.982559,37.413028,0.204704,-0.908600,9.282320,0.000000,-0.015267,-0.015267,-5.637770,1.319024,4.268781
95434,55.982559,37.413028,0.216675,-0.908600,9.261970,0.000000,0.000000,-0.015267,-5.637770,1.319024,4.268781
95595,55.982559,37.413028,nan,nan,nan,nan,nan,nan,nan,nan,nan
95695,55.982559,37.413028,0.222661,-0.913388,9.265561,-0.015267,-0.015267,0.000000,-5.637770,1.319024,4.268781
95795,55.982559,37.413028,0.210690,-0.909797,9.267955,0.000000,0.000000,0.000000,-5.637770,1.319024,4.268781
95895,55.982559,37.413028,0.213084,-0.919373,9.260772,0.000000,-0.015267,-0.015267,-5.637770,1.319024,4.268781
95995,55.982559,37.413028,0.215478,-0.909797,9.255984,-0.015267,-0.015267,-0.015267,-5.637519,1.326005,4.269127
96095,55.982559,37.413028,0.207098,-0.913388,9.265561,0.000000,-0.015267,-0.015267,-5.637862,1.318683,4.261819
96195,55.982559,37.413028,0.215478,-0.915782,9.255984,-0.015267,-0.015267,0.000000,-5.630787,1.318775,4.268764
96295,55.982559,37.413028,0.217872,-0.914585,9.271547,0.000000,-0.015267,0.000000,-5.630880,1.318434,4.261803
96395,55.982559,37.413028,0.213084,-0.916979,9.267955,-0.015267,0.000000,-0.015267,-5.637862,1.318683,4.261819
96495,55.982559,37.413028,0.215478,-0.913388,9.272744,0.000000,-0.015267,-0.015267,-5.637862,1.318683,4.261819
96595,55.982559,37.413028,0.220267,-0.918176,9.251195,0.000000,-0.015267,-0.015267,-5.637862,1.318683,4.261819
96695,55.982559,37.413028,0.214281,-0.916979,9.265561,0.000000,0.000000,0.000000,-5.637862,1.318683,4.261819
96795,55.982559,37.413028,0.213084,-0.915782,9.269152,0.000000,-0.015267,-0.015267,-5.637862,1.318683,4.261819
96896,55.982559,37.413028,0.219069,-0.916979,9.259575,-0.015267,-0.015267,-0.015267,-5.637862,1.318683,4.261819
96996,55.982559,37.413028,0.213084,-0.918176,9.255984,-0.015267,-0.015267,0.000000,-5.644597,1.325913,4.262181
97096,55.982559,37.413028,0.210690,-0.916979,9.252393,-0.015267,-0.015267,-0.015267,-5.637613,1.325664,4.262166
97196,55.982559,37.413028,0.210690,-0.920571,9.275137,0.000000,-0.015267,-0.015267,-5.644845,1.318933,4.261836
97296,55.982559,37.413028,0.210690,-0.914585,9.249999,-0.015267,-0.015267,0.000000,-5.644845,1.318933,4.261836
97396,55.982559,37.413028,0.225055,-0.914585,9.261970,-0.015267,0.000000,-0.015267,-5.644845,1.318933,4.261836
97555,55.982559,37.413028,nan,nan,nan,nan,nan,nan,nan,nan,nan
97655,55.982559,37.413028,0.216675,-0.914585,9.272744,0.000000,-0.015267,-0.015267,-5.637613,1.325664,4.262166
97755,55.982559,37.413028,0.221464,-0.926556,9.266758,0.000000,-0.015267,0.000000,-5.644597,1.325913,4.262181
97855,55.982559,37.413028,0.217872,-0.924162,9.260772,0.000000,0.000000,-0.015267,-5.644937,1.326007,4.262963
97955,55.982559,37.413028,0.215478,-0.919373,9.253590,0.000000,-0.015267,-0.015267,-5.651921,1.318840,4.254890
98055,55.982559,37.413028,0.199916,-0.910994,9.263167,-0.015267,0.000000,-0.015267,-5.644845,1.318933,4.261836
98155,55.982559,37.413028,0.215478,-0.916979,9.246407,0.000000,-0.015267,-0.015267,-5.644845,1.318933,4.261836
98255,55.982559,37.413028,0.226252,-0.905008,9.259575,-0.015267,-0.015267,-0.015267,-5.644845,1.318933,4.261836
98355,55.982559,37.413028,0.213084,-0.914585,9.258378,0.000000,0.000000,0.000000,-5.637955,1.318343,4.254857
98455,55.982559,37.413028,0.209493,-0.914585,9.273941,-0.015267,-0.015267,0.000000,-5.637955,1.318343,4.254857
98555,55.982559,37.413028,0.213084,-0.914585,9.275137,-0.015267,0.000000,-0.015267,-5.637955,1.318343,4.254857
98655,55.982559,37.413028,0.213084,-0.912191,9.263167,-0.015267,-0.015267,0.000000,-5.638048,1.318002,4.247895
98755,55.982559,37.413028,0.211887,-0.913388,9.254787,0.000000,0.000000,-0.015267,-5.631065,1.317754,4.247879
98855,55.982559,37.413028,0.221464,-0.914585,9.258378,0.000000,-0.015267,-0.015267,-5.631065,1.317754,4.247879
98955,55.982559,37.413028,0.219069,-0.924162,9.267955,0.000000,0.000000,0.000000,-5.631065,1.317754,4.247879
99055,55.982559,37.413028,0.211887,-0.914585,9.284714,0.000000,0.000000,-0.015267,-5.630973,1.318094,4.254840
99155,55.982559,37.413028,0.207098,-0.913388,9.263167,-0.015267,0.000000,-0.015267,-5.631314,1.310773,4.247533
99255,55.982559,37.413028,0.211887,-0.925359,9.254787,0.000000,0.000000,-0.015267,-5.638204,1.311362,4.254512
99355,55.982559,37.413028,0.221464,-0.912191,9.264364,0.000000,0.000000,-0.015267,-5.638297,1.311021,4.247549
99456,55.982559,37.413028,nan,nan,nan,nan,nan,nan,nan,nan,nan
99556,55.982559,37.413028,nan,nan,nan,nan,nan,nan,nan,nan,nan
99656,55.982559,37.413028,0.214281,-0.905008,9.263167,-0.015267,-0.015267,-0.015267,-5.638297,1.311021,4.247549
99756,55.982559,37.413028,0.209493,-0.919373,9.269152,-0.015267,0.000000,0.000000,-5.638297,1.311021,4.247549
99856,55.982559,37.413028,0.213084,-0.908600,9.282320,-0.015267,-0.015267,-0.015267,-5.638297,1.311021,4.247549
99956,55.982559,37.413028,0.214281,-0.916979,9.261970,0.000000,0.000000,0.000000,-5.638297,1.311021,4.247549
100056,55.982559,37.413028,0.214281,-0.914585,9.261970,-0.015267,-0.015267,-0.015267,-5.638297,1.311021,4.247549
100156,55.982559,37.413028,0.213084,-0.916979,9.261970,-0.015267,-0.015267,-0.015267,-5.638297,1.311021,4.247549
100256,55.982559,37.413028,0.209493,-0.912191,9.279926,-0.015267,-0.015267,0.000000,-5.638297,1.311021,4.247549
100356,55.982559,37.413028,0.227449,-0.915782,9.270349,0.000000,-0.015267,-0.015267,-5.631314,1.310773,4.247533
100456,55.982559,37.413028,0.211887,-0.918176,9.264364,-0.015267,-0.015267,-0.015267,-5.638048,1.318002,4.247895
100556,55.982559,37.413028,0.219069,-0.913388,9.269152,-0.015267,-0.015267,-0.015267,-5.631158,1.317413,4.240916
100656,55.982559,37.413028,0.215478,-0.922965,9.273941,0.000000,0.000000,-0.015267,-5.638141,1.317661,4.240933
100756,55.982559,37.413028,0.216675,-0.906205,9.251195,0.000000,0.000000,-0.015267,-5.638048,1.318002,4.247895
100856,55.982559,37.413028,0.210690,-0.914585,9.261970,-0.015267,-0.015267,-0.015267,-5.638141,1.317661,4.240933
100956,55.982559,37.413028,0.217872,-0.910994,9.270349,0.000000,-0.015267,0.000000,-5.638141,1.317661,4.240933
101056,55.982559,37.413028,0.216675,-0.909797,9.252393,-0.015267,-0.015267,0.000000,-5.638141,1.317661,4.240933
101156,55.982559,37.413028,0.214281,-0.915782,9.271547,0.000000,-0.015267,-0.015267,-5.631158,1.317413,4.240916
101256,55.982559,37.413028,0.215478,-0.912191,9.258378,0.000000,-0.015267,0.000000,-5.631406,1.310432,4.240571
101356,55.982559,37.413028,0.205901,-0.914585,9.273941,0.000000,0.000000,-0.015267,-5.638388,1.310680,4.240587
101456,55.982559,37.413028,0.220267,-0.921768,9.249999,0.000000,0.000000,-0.015267,-5.638388,1.310680,4.240587
101598,55.982559,37.413028,0.220267,-0.914585,9.265561,0.000000,0.000000,-0.015267,-5.638141,1.317661,4.240933
101698,55.982559,37.413028,0.216675,-0.919373,9.266758,-0.015267,-0.015267,-0.015267,-5.638141,1.317661,4.240933
101798,55.982559,37.413028,0.215478,-0.914585,9.269152,-0.015267,-0.015267,-0.015267,-5.638141,1.317661,4.240933
101898,55.982559,37.413028,0.213084,-0.918176,9.273941,-0.015267,-0.015267,0.000000,-5.644876,1.324890,4.241295
101998,55.982559,37.413028,0.216675,-0.927753,9.276335,0.000000,-0.015267,-0.015267,-5.645123,1.317909,4.240949
102098,55.982559,37.413028,0.211887,-0.918176,9.266758,0.000000,0.000000,-0.015267,-5.645123,1.317909,4.240949
102198,55.982559,37.413028,0.209493,-0.918176,9.270349,-0.015267,-0.015267,0.000000,-5.645123,1.317909,4.240949
102298,55.982559,37.413028,0.228646,-0.914585,9.263167,0.000000,-0.015267,-0.015267,-5.644876,1.324890,4.241295
102398,55.982559,37.413028,0.220267,-0.914585,9.254787,0.000000,0.000000,-0.015267,-5.644876,1.324890,4.241295
102498,55.982559,37.413028,0.205901,-0.913388,9.260772,-0.015267,-0.015267,0.000000,-5.644969,1.324548,4.234333
102598,55.982559,37.413028,0.214281,-0.914585,9.255984,-0.015267,-0.015267,0.000000,-5.644969,1.324548,4.234333
102699,55.982559,37.413028,0.213084,-0.906205,9.270349,0.000000,-0.015267,-0.015267,-5.644969,1.324548,4.234333
102799,55.982559,37.413028,0.213084,-0.912191,9.249999,-0.015267,0.000000,-0.015267,-5.638233,1.317320,4.233971
102899,55.982559,37.413028,0.216675,-0.915782,9.264364,0.000000,0.000000,-0.015267,-5.638233,1.317320,4.233971
102999,55.982559,37.413028,0.214281,-0.914585,9.270349,-0.015267,-0.015267,-0.015267,-5.638233,1.317320,4.233971
103099,55.982559,37.413028,0.202310,-0.924162,9.273941,-0.015267,-0.015267,0.000000,-5.645216,1.317568,4.233987
103199,55.982559,37.413028,0.209493,-0.916979,9.273941,-0.015267,0.000000,0.000000,-5.638481,1.310339,4.233624
103299,55.982559,37.413028,0.214281,-0.910994,9.252393,0.000000,0.000000,-0.015267,-5.638481,1.310339,4.233624
103399,55.982559,37.413028,0.207098,-0.916979,9.261970,0.000000,0.000000,-0.015267,-5.638481,1.310339,4.233624
103560,55.982559,37.413028,nan,nan,nan,nan,nan,nan,nan,nan,nan
103660,55.982559,37.413028,0.211887,-0.922965,9.249999,-0.015267,-0.015267,0.000000,-5.638820,1.303017,4.226316
103760,55.982559,37.413028,0.220267,-0.910994,9.255984,0.000000,-0.015267,0.000000,-5.638820,1.303017,4.226316
103860,55.982559,37.413028,0.215478,-0.919373,9.269152,-0.015267,-0.015267,-0.015267,-5.638820,1.303017,4.226316
103960,55.982559,37.413028,0.216675,-0.920571,9.259575,0.000000,0.000000,-0.015267,-5.638820,1.303017,4.226316
104060,55.982559,37.413028,0.203507,-0.909797,9.267955,0.000000,0.000000,-0.015267,-5.638820,1.303017,4.226316
104160,55.982559,37.413028,0.213084,-0.907402,9.255984,0.000000,-0.015267,0.000000,-5.638573,1.309998,4.226662
104260,55.982559,37.413028,0.213084,-0.919373,9.281124,-0.015267,0.000000,-0.015267,-5.638573,1.309998,4.226662
104360,55.982559,37.413028,0.209493,-0.908600,9.283517,0.000000,-0.015267,0.000000,-5.631838,1.302770,4.226300
104460,55.982559,37.413028,0.216675,-0.918176,9.269152,-0.015267,0.000000,-0.015267,-5.638573,1.309998,4.226662
104560,55.982559,37.413028,0.217872,-0.913388,9.263167,-0.015267,-0.015267,-0.015267,-5.638573,1.309998,4.226662
104660,55.982559,37.413028,0.211887,-0.907402,9.267955,0.000000,-0.015267,0.000000,-5.631590,1.309751,4.226645
104760,55.982559,37.413028,0.219069,-0.907402,9.263167,0.000000,0.000000,-0.015267,-5.631838,1.302770,4.226300
104860,55.982559,37.413028,0.215478,-0.914585,9.270349,0.000000,-0.015267,0.000000,-5.631590,1.309751,4.226645
104960,55.982559,37.413028,0.215478,-0.920571,9.259575,0.000000,0.000000,-0.015267,-5.638665,1.309657,4.219699
105060,55.982559,37.413028,0.216675,-0.920571,9.271547,0.000000,0.000000,0.000000,-5.638665,1.309657,4.219699
105160,55.982559,37.413028,0.220267,-0.915782,9.265561,0.000000,-0.015267,0.000000,-5.638912,1.302677,4.219353
105260,55.982559,37.413028,0.209493,-0.914585,9.254787,-0.015267,-0.015267,0.000000,-5.638665,1.309657,4.219699
105360,55.982559,37.413028,0.214281,-0.918176,9.257182,0.000000,0.000000,-0.015267,-5.631682,1.309411,4.219683
105460,55.982559,37.413028,nan,nan,nan,nan,nan,nan,nan,nan,nan
105560,55.982559,37.413028,nan,nan,nan,nan,nan,nan,nan,nan,nan
105660,55.982559,37.413028,0.208296,-0.910994,9.264364,0.000000,-0.015267,-0.015267,-5.631929,1.302430,4.219337
105760,55.982559,37.413028,0.214281,-0.924162,9.259575,0.000000,0.000000,0.000000,-5.631929,1.302430,4.219337
105860,55.982559,37.413028,0.210690,-0.914585,9.259575,0.000000,0.000000,0.000000,-5.632021,1.302089,4.212375
105960,55.982559,37.413028,0.210690,-0.914585,9.279926,-0.015267,-0.015267,-0.015267,-5.632021,1.302089,4.212375
106060,55.982559,37.413028,0.209493,-0.908600,9.271547,-0.015267,0.000000,-0.015267,-5.632021,1.302089,4.212375
106160,55.982559,37.413028,0.217872,-0.919373,9.276335,0.000000,-0.015267,0.000000,-5.639003,1.302336,4.212390
106260,55.982559,37.413028,0.217872,-0.913388,9.272744,-0.015267,0.000000,-0.015267,-5.631774,1.309070,4.212719
106360,55.982559,37.413028,0.216675,-0.914585,9.288306,-0.015267,0.000000,0.000000,-5.631774,1.309070,4.212719
106460,55.982559,37.413028,0.216675,-0.918176,9.269152,-0.015267,0.000000,-0.015267,-5.638757,1.309316,4.212736
106560,55.982559,37.413028,0.210690,-0.915782,9.271547,0.000000,-0.015267,-0.015267,-5.631774,1.309070,4.212719
106660,55.982559,37.413028,0.205901,-0.912191,9.264364,-0.015267,-0.015267,-0.015267,-5.631774,1.309070,4.212719
106760,55.982559,37.413028,0.210690,-0.915782,9.267955,0.000000,-0.015267,0.000000,-5.632021,1.302089,4.212375
106860,55.982559,37.413028,0.221464,-0.919373,9.277532,0.000000,-0.015267,0.000000,-5.638757,1.309316,4.212736
106960,55.982559,37.413028,0.221464,-0.913388,9.266758,-0.015267,0.000000,0.000000,-5.638511,1.316297,4.213082
107060,55.982559,37.413028,0.219069,-0.910994,9.273941,0.000000,-0.015267,0.000000,-5.631528,1.316051,4.213065
107160,55.982559,37.413028,0.215478,-0.921768,9.258378,-0.015267,-0.015267,0.000000,-5.638511,1.316297,4.213082
107260,55.982559,37.413028,0.213084,-0.924162,9.264364,-0.015267,-0.015267,-0.015267,-5.638511,1.316297,4.213082
107360,55.982559,37.413028,0.217872,-0.913388,9.267955,0.000000,0.000000,-0.015267,-5.638511,1.316297,4.213082
107464,55.982559,37.413028,0.217872,-0.928950,9.254787,0.000000,0.000000,-0.015267,-5.645494,1.316544,4.213099
107612,55.982559,37.413028,0.214281,-0.912191,9.245210,0.000000,-0.015267,-0.015267,-5.645587,1.316202,4.206136
107712,55.982559,37.413028,0.213084,-0.919373,9.261970,-0.015267,-0.015267,0.000000,-5.645587,1.316202,4.206136
107812,55.982559,37.413028,0.215478,-0.913388,9.251195,-0.015267,-0.015267,0.000000,-5.645587,1.316202,4.206136
107912,55.982559,37.413028,0.204704,-0.925359,9.263167,-0.015267,-0.015267,-0.015267,-5.645587,1.316202,4.206136
108012,55.982559,37.413028,0.216675,-0.925359,9.255984,-0.015267,-0.015267,-0.015267,-5.652569,1.316448,4.206153
108112,55.982559,37.413028,0.215478,-0.912191,9.260772,0.000000,-0.015267,-0.015267,-5.645587,1.316202,4.206136
108212,55.982559,37.413028,0.210690,-0.916979,9.266758,0.000000,-0.015267,-0.015267,-5.645833,1.309221,4.205790
108312,55.982559,37.413028,0.223858,-0.925359,9.264364,-0.015267,0.000000,-0.015267,-5.652569,1.316448,4.206153
108412,55.982559,37.413028,0.208296,-0.920571,9.260772,-0.015267,0.000000,0.000000,-5.652569,1.316448,4.206153
108512,55.982559,37.413028,0.208296,-0.919373,9.264364,-0.015267,-0.015267,-0.015267,-5.652815,1.309467,4.205806
108612,55.982559,37.413028,0.208296,-0.925359,9.259575,0.000000,-0.015267,-0.015267,-5.652569,1.316448,4.206153
108712,55.982559,37.413028,0.208296,-0.912191,9.284714,0.000000,0.000000,0.000000,-5.659552,1.316694,4.206169
108812,55.982559,37.413028,0.217872,-0.912191,9.271547,0.000000,-0.015267,-0.015267,-5.659644,1.316351,4.199206
108912,55.982559,37.413028,0.214281,-0.908600,9.267955,-0.015267,-0.015267,-0.015267,-5.652569,1.316448,4.206153
109012,55.982559,37.413028,0.219069,-0.919373,9.258378,0.000000,-0.015267,-0.015267,-5.652569,1.316448,4.206153
109112,55.982559,37.413028,0.209493,-0.907402,9.266758,0.000000,-0.015267,-0.015267,-5.645587,1.316202,4.206136
109212,55.982559,37.413028,0.216675,-0.908600,9.252393,-0.015267,0.000000,-0.015267,-5.645679,1.315861,4.199173
109312,55.982559,37.413028,0.219069,-0.912191,9.257182,-0.015267,0.000000,0.000000,-5.645679,1.315861,4.199173
109412,55.982559,37.413028,0.215478,-0.920571,9.253590,0.000000,-0.015267,0.000000,-5.645679,1.315861,4.199173
109578,55.982559,37.413028,nan,nan,nan,nan,nan,nan,nan,nan,nan
109678,55.982559,37.413028,0.204704,-0.912191,9.269152,0.000000,0.000000,0.000000,-5.645771,1.315520,4.192210
109778,55.982559,37.413028,0.211887,-0.916979,9.260772,-0.015267,-0.015267,0.000000,-5.645771,1.315520,4.192210
109878,55.982559,37.413028,0.208296,-0.908600,9.273941,0.000000,-0.015267,-0.015267,-5.645771,1.315520,4.192210
109978,55.982559,37.413028,0.214281,-0.912191,9.264364,0.000000,0.000000,-0.015267,-5.645771,1.315520,4.192210
110078,55.982559,37.413028,0.217872,-0.918176,9.269152,0.000000,-0.015267,-0.015267,-5.638788,1.315275,4.192193
110178,55.982559,37.413028,0.207098,-0.926556,9.257182,0.000000,0.000000,-0.015267,-5.645771,1.315520,4.192210
110278,55.982559,37.413028,0.217872,-0.916979,9.253590,-0.015267,-0.015267,-0.015267,-5.652754,1.315764,4.192227
110379,55.982559,37.413028,0.214281,-0.921768,9.266758,0.000000,-0.015267,-0.015267,-5.645771,1.315520,4.192210
110479,55.982559,37.413028,0.205901,-0.915782,9.272744,0.000000,0.000000,0.000000,-5.645771,1.315520,4.192210
110579,55.982559,37.413028,0.216675,-0.918176,9.273941,0.000000,0.000000,-0.015267,-5.645771,1.315520,4.192210
110679,55.982559,37.413028,0.204704,-0.913388,9.258378,0.000000,0.000000,-0.015267,-5.646109,1.308197,4.184900
110779,55.982559,37.413028,0.208296,-0.925359,9.258378,0.000000,-0.015267,-0.015267,-5.653091,1.308441,4.184917
110879,55.982559,37.413028,0.215478,-0.907402,9.263167,0.000000,-0.015267,-0.015267,-5.645864,1.315178,4.185246
110979,55.982559,37.413028,0.210690,-0.920571,9.271547,0.000000,-0.015267,0.000000,-5.653091,1.308441,4.184917
111079,55.982559,37.413028,0.211887,-0.924162,9.267955,0.000000,-0.015267,0.000000,-5.653091,1.308441,4.184917
111179,55.982559,37.413028,0.207098,-0.919373,9.265561,0.000000,-0.015267,-0.015267,-5.653091,1.308441,4.184917
111279,55.982559,37.413028,0.209493,-0.912191,9.259575,0.000000,0.000000,-0.015267,-5.646109,1.308197,4.184900
111379,55.982559,37.413028,0.225055,-0.912191,9.267955,-0.015267,-0.015267,-0.015267,-5.646109,1.308197,4.184900
111479,55.982559,37.413028,0.222661,-0.922965,9.269152,0.000000,0.000000,-0.015267,-5.652939,1.315081,4.178300
111610,55.982559,37.413028,0.209493,-0.916979,9.261970,0.000000,0.000000,-0.015267,-5.645956,1.314837,4.178283
111710,55.982559,37.413028,0.214281,-0.913388,9.267955,-0.015267,0.000000,-0.015267,-5.645956,1.314837,4.178283
111810,55.982559,37.413028,0.207098,-0.916979,9.260772,0.000000,-0.015267,0.000000,-5.646200,1.307856,4.177937
111910,55.982559,37.413028,0.211887,-0.908600,9.255984,0.000000,-0.015267,0.000000,-5.645956,1.314837,4.178283
112010,55.982559,37.413028,0.202310,-0.908600,9.264364,-0.015267,-0.015267,-0.015267,-5.646049,1.314495,4.171319
112110,55.982559,37.413028,0.211887,-0.916979,9.260772,0.000000,-0.015267,-0.015267,-5.639065,1.314252,4.171302
112210,55.982559,37.413028,0.217872,-0.907402,9.258378,0.000000,-0.015267,-0.015267,-5.632082,1.314008,4.171285
112310,55.982559,37.413028,0.217872,-0.918176,9.267955,0.000000,-0.015267,-0.015267,-5.639065,1.314252,4.171302
112410,55.982559,37.413028,0.220267,-0.913388,9.266758,0.000000,-0.015267,0.000000,-5.638822,1.321233,4.171648
112510,55.982559,37.413028,0.210690,-0.924162,9.271547,0.000000,0.000000,-0.015267,-5.631839,1.320989,4.171630
112610,55.982559,37.413028,0.216675,-0.916979,9.257182,0.000000,-0.015267,-0.015267,-5.638822,1.321233,4.171648
112710,55.982559,37.413028,0.222661,-0.915782,9.264364,-0.015267,0.000000,-0.015267,-5.638822,1.321233,4.171648
112811,55.982559,37.413028,0.211887,-0.926556,9.259575,-0.015267,-0.015267,-0.015267,-5.638822,1.321233,4.171648
112911,55.982559,37.413028,0.216675,-0.913388,9.266758,0.000000,-0.015267,0.000000,-5.638822,1.321233,4.171648
113011,55.982559,37.413028,0.219069,-0.912191,9.279926,0.000000,0.000000,-0.015267,-5.638915,1.320892,4.164685
113111,55.982559,37.413028,0.215478,-0.913388,9.264364,-0.015267,-0.015267,-0.015267,-5.638822,1.321233,4.171648
113211,55.982559,37.413028,0.215478,-0.914585,9.246407,0.000000,-0.015267,-0.015267,-5.638578,1.328214,4.171994
113311,55.982559,37.413028,0.213084,-0.912191,9.261970,-0.015267,-0.015267,0.000000,-5.631596,1.327971,4.171975
113411,55.982559,37.413028,0.214281,-0.910994,9.271547,0.000000,-0.015267,-0.015267,-5.631596,1.327971,4.171975
113550,55.982559,37.413028,0.210690,-0.914585,9.255984,0.000000,0.000000,-0.015267,-5.631839,1.320989,4.171630
113650,55.982559,37.413028,0.208296,-0.913388,9.258378,0.000000,-0.015267,0.000000,-5.631839,1.320989,4.171630
113750,55.982559,37.413028,0.205901,-0.915782,9.251195,-0.015267,-0.015267,-0.015267,-5.631839,1.320989,4.171630
113850,55.982559,37.413028,0.215478,-0.914585,9.254787,0.000000,-0.015267,-0.015267,-5.631839,1.320989,4.171630
113950,55.982559,37.413028,0.207098,-0.915782,9.271547,-0.015267,-0.015267,0.000000,-5.631596,1.327971,4.171975
114050,55.982559,37.413028,0.208296,-0.913388,9.261970,-0.015267,-0.015267,0.000000,-5.638578,1.328214,4.171994
114150,55.982559,37.413028,0.214281,-0.913388,9.261970,0.000000,-0.015267,0.000000,-5.638822,1.321233,4.171648
114250,55.982559,37.413028,0.219069,-0.902614,9.257182,-0.015267,-0.015267,0.000000,-5.631839,1.320989,4.171630
114350,55.982559,37.413028,0.219069,-0.919373,9.263167,-0.015267,-0.015267,-0.015267,-5.631932,1.320649,4.164666
114450,55.982559,37.413028,0.209493,-0.922965,9.271547,0.000000,-0.015267,-0.015267,-5.638915,1.320892,4.164685
114550,55.982559,37.413028,0.226252,-0.915782,9.261970,0.000000,0.000000,-0.015267,-5.638578,1.328214,4.171994
114650,55.982559,37.413028,0.220267,-0.913388,9.265561,0.000000,0.000000,-0.015267,-5.638578,1.328214,4.171994
114750,55.982559,37.413028,0.217872,-0.916979,9.272744,-0.015267,0.000000,-0.015267,-5.638578,1.328214,4.171994
114850,55.982559,37.413028,0.214281,-0.918176,9.271547,-0.015267,-0.015267,-0.015267,-5.638578,1.328214,4.171994
114950,55.982559,37.413028,0.217872,-0.916979,9.260772,0.000000,0.000000,-0.015267,-5.638671,1.327873,4.165030
115050,55.982559,37.413028,0.210690,-0.920571,9.269152,-0.015267,-0.015267,-0.015267,-5.645654,1.328116,4.165048
115150,55.982559,37.413028,0.209493,-0.908600,9.267955,0.000000,-0.015267,-0.015267,-5.645654,1.328116,4.165048
115250,55.982559,37.413028,0.209493,-0.913388,9.251195,0.000000,0.000000,0.000000,-5.638671,1.327873,4.165030
115350,55.982559,37.413028,0.214281,-0.913388,9.270349,-0.015267,-0.015267,-0.015267,-5.638671,1.327873,4.165030
115450,55.982559,37.413028,nan,nan,nan,nan,nan,nan,nan,nan,nan
115550,55.982559,37.413028,0.208296,-0.918176,9.267955,0.000000,-0.015267,-0.015267,-5.645747,1.327775,4.158084
115650,55.982559,37.413028,0.220267,-0.921768,9.273941,0.000000,0.000000,-0.015267,-5.645654,1.328116,4.165048
115750,55.982559,37.413028,0.214281,-0.915782,9.267955,0.000000,0.000000,0.000000,-5.645747,1.327775,4.158084
115850,55.982559,37.413028,0.210690,-0.907402,9.276335,-0.015267,0.000000,0.000000,-5.639007,1.320551,4.157721
115950,55.982559,37.413028,0.215478,-0.914585,9.275137,-0.015267,0.000000,0.000000,-5.632024,1.320308,4.157702
116050,55.982559,37.413028,0.221464,-0.912191,9.290700,0.000000,0.000000,-0.015267,-5.638915,1.320892,4.164685
116150,55.982559,37.413028,0.210690,-0.910994,9.267955,0.000000,-0.015267,-0.015267,-5.631932,1.320649,4.164666
116250,55.982559,37.413028,0.205901,-0.913388,9.271547,0.000000,-0.015267,-0.015267,-5.631932,1.320649,4.164666
116350,55.982559,37.413028,0.217872,-0.915782,9.255984,0.000000,0.000000,-0.015267,-5.631932,1.320649,4.164666
116450,55.982559,37.413028,0.209493,-0.918176,9.257182,-0.015267,0.000000,0.000000,-5.632024,1.320308,4.157702
116550,55.982559,37.413028,0.215478,-0.914585,9.259575,-0.015267,-0.015267,-0.015267,-5.632024,1.320308,4.157702
116651,55.982559,37.413028,0.210690,-0.916979,9.265561,0.000000,-0.015267,-0.015267,-5.639007,1.320551,4.157721
116751,55.982559,37.413028,0.219069,-0.915782,9.259575,0.000000,-0.015267,-0.015267,-5.632024,1.320308,4.157702
116851,55.982559,37.413028,0.227449,-0.914585,9.270349,-0.015267,-0.015267,-0.015267,-5.638764,1.327532,4.158067
116951,55.982559,37.413028,0.216675,-0.908600,9.266758,0.000000,0.000000,-0.015267,-5.631782,1.327290,4.158048
117051,55.982559,37.413028,0.221464,-0.915782,9.255984,-0.015267,0.000000,0.000000,-5.638764,1.327532,4.158067
117151,55.982559,37.413028,0.208296,-0.916979,9.257182,-0.015267,-0.015267,0.000000,-5.638764,1.327532,4.158067
117251,55.982559,37.413028,0.221464,-0.918176,9.265561,0.000000,-0.015267,-0.015267,-5.638522,1.334513,4.158412
