# Инициализация MPU6050...
# MPU6050 OK
# Держите неподвижно. Калибровка гиро... 5 сек
# Держите неподвижно... 4 сек
# Держите неподвижно... 3 сек
# Держите неподвижно... 2 сек
# Держите неподвижно... 1 сек
# Держите неподвижно... 0 сек
# Калибровка гиро завершена.
# DMP готов. Начинайте движение.
# Ожидание фиксации ГНСС...
time_ms,lat,lon,gnss_speed_mps,gnss_vn_mps,gnss_ve_mps,ax,ay,az,gx,gy,gz,roll_deg,pitch_deg,yaw_deg
103552,55.591011,37.671955,0.787100,-0.605506,-0.502880,-2.466028,-0.472855,8.925584,0.061069,0.015267,-0.061069,-5.231190,-14.218012,219.710006
103652,55.591011,37.671955,0.787100,-0.605506,-0.502880,-2.206257,-0.542287,8.955512,-0.091603,-0.030534,0.045802,-5.074901,-14.172240,219.714584
103752,55.591011,37.671955,0.787100,-0.605506,-0.502880,-2.579752,-0.548272,8.798691,0.076336,0.015267,-0.045802,-4.902108,-14.307909,219.710006
103852,55.591011,37.671955,0.787100,-0.605506,-0.502880,-2.104503,-0.453701,9.114727,-0.030534,-0.015267,-0.015267,-4.700505,-14.282413,219.708480
103952,55.591011,37.671955,0.787100,-0.605506,-0.502880,-2.649184,-0.684742,8.661026,0.000000,0.000000,0.030534,-4.677535,-14.384296,219.711532
104052,55.591011,37.671955,0.787100,-0.605506,-0.502880,-2.382231,-0.538695,8.904037,0.061069,0.015267,-0.106870,-4.472013,-14.533779,219.700851
104152,55.591011,37.671955,0.787100,-0.605506,-0.502880,-2.549825,-0.762553,8.811860,-0.091603,-0.015267,0.061069,-4.501483,-14.571363,219.706954
104252,55.591011,37.671955,0.787100,-0.605506,-0.502880,-2.420538,-0.626084,8.844182,0.030534,0.000000,-0.030534,-4.401170,-14.780934,219.703903
104352,55.591011,37.671955,0.787100,-0.605506,-0.502880,-2.765303,-0.718261,8.728063,-0.030534,-0.015267,-0.030534,-4.399556,-14.984198,219.700851
104452,55.591011,37.671955,0.787100,-0.605506,-0.502880,-2.887407,-0.806846,8.608353,0.000000,0.000000,-0.030534,-4.415443,-15.247625,219.697799
104552,55.591011,37.671955,0.787100,-0.605506,-0.502880,-3.099294,-0.695516,8.796298,0.030534,0.000000,-0.030534,-4.386157,-15.592951,219.694747
104652,55.591011,37.671955,0.787100,-0.605506,-0.502880,-3.094506,-0.847547,8.504205,0.015267,0.000000,-0.030534,-4.447923,-15.921760,219.691696
104752,55.591011,37.671955,0.787100,-0.605506,-0.502880,-3.203442,-0.630872,8.615535,-0.015267,-0.015267,-0.045802,-4.425209,-16.180383,219.687118
104852,55.591011,37.671955,0.787100,-0.605506,-0.502880,-3.184288,-0.709881,8.819043,0.000000,-0.015267,-0.045802,-4.471165,-16.385381,219.682540
104952,55.591011,37.671955,0.787100,-0.605506,-0.502880,-3.095703,-0.820014,8.722077,-0.045802,-0.015267,-0.030534,-4.684588,-16.523166,219.679489
105052,55.591011,37.671955,0.787100,-0.605506,-0.502880,-2.910152,-0.817620,8.686164,0.015267,-0.030534,-0.030534,-4.782122,-16.601442,219.676437
105152,55.591011,37.671955,0.787100,-0.605506,-0.502880,-2.694674,-0.907402,8.787918,0.015267,-0.015267,-0.030534,-4.901147,-16.542144,219.673385
105252,55.591011,37.671955,0.787100,-0.605506,-0.502880,-2.346318,-0.884657,8.944738,-0.045802,-0.015267,-0.015267,-4.999326,-16.372385,219.671859
105352,55.591011,37.671955,0.787100,-0.605506,-0.502880,-2.355895,-0.899023,9.011775,0.045802,-0.015267,-0.030534,-5.054329,-16.262277,219.668807
105641,55.591011,37.671955,0.787100,-0.605506,-0.502880,-2.375048,-1.080982,8.826225,-0.015267,0.000000,0.015267,-5.371066,-15.850656,219.673217
105741,55.591011,37.671955,0.787100,-0.605506,-0.502880,-2.146402,-0.891840,8.925584,-0.045802,-0.015267,0.045802,-5.376643,-15.584816,219.677795
105841,55.591011,37.671955,0.787100,-0.605506,-0.502880,-1.838747,-0.922965,8.991425,0.045802,-0.015267,0.045802,-5.240465,-15.401227,219.682373
105942,55.591011,37.671955,0.787100,-0.605506,-0.502880,-1.997961,-0.847547,8.959103,-0.015267,0.000000,0.015267,-5.225802,-15.184914,219.683914
106042,55.591011,37.671955,0.787100,-0.605506,-0.502880,-2.030283,-0.714669,9.051280,-0.030534,-0.030534,0.091603,-5.134723,-14.881744,219.693069
106142,55.591011,37.671955,0.787100,-0.605506,-0.502880,-1.725022,-0.646434,9.131485,0.015267,0.000000,0.061069,-4.930875,-14.694496,219.699172
106242,55.591011,37.671955,0.787100,-0.605506,-0.502880,-2.243367,-0.661997,8.939949,-0.015267,0.000000,0.015267,-4.842384,-14.634902,219.700698
106342,55.591011,37.671955,0.787100,-0.605506,-0.502880,-1.956063,-0.719458,8.931570,-0.076336,-0.030534,0.106870,-4.755287,-14.449520,219.711380
106442,55.591011,37.671955,0.787100,-0.605506,-0.502880,-1.980005,-0.737414,8.941146,0.091603,0.000000,0.000000,-4.681557,-14.408227,219.711380
106542,55.591011,37.671955,0.787100,-0.605506,-0.502880,-1.860295,-0.640449,9.224860,-0.137405,-0.030534,0.106870,-4.668788,-14.101195,219.722061
106642,55.591011,37.671955,0.787100,-0.605506,-0.502880,-2.370260,-0.758962,8.981848,0.045802,0.015267,0.000000,-4.682778,-14.195210,219.722061
106742,55.591011,37.671955,0.787100,-0.605506,-0.502880,-2.092532,-0.790087,8.960300,-0.106870,-0.030534,0.106870,-4.700449,-14.169379,219.732742
106842,55.591011,37.671955,0.787100,-0.605506,-0.502880,-2.591723,-0.796072,8.680179,0.030534,0.015267,0.061069,-4.714643,-14.341440,219.738845
106942,55.591011,37.671955,0.787100,-0.605506,-0.502880,-2.027889,-0.640449,9.094376,-0.045802,-0.030534,0.061069,-4.637249,-14.339461,219.744949
107042,55.591011,37.671955,0.787100,-0.605506,-0.502880,-2.583344,-0.737414,8.835802,-0.061069,0.000000,0.091603,-4.735424,-14.395708,219.754104
107142,55.591011,37.671955,0.787100,-0.605506,-0.502880,-2.135628,-0.588974,9.002199,-0.015267,-0.015267,0.030534,-4.699090,-14.443407,219.757156
107242,55.591011,37.671955,0.787100,-0.605506,-0.502880,-2.365471,-0.867898,8.668208,-0.045802,-0.015267,0.137405,-4.781304,-14.436841,219.770889
107342,55.591011,37.671955,0.787100,-0.605506,-0.502880,-2.370260,-0.687136,8.997410,0.045802,0.015267,0.030534,-4.723743,-14.567961,219.773941
107442,55.591011,37.671997,0.787100,-0.605506,-0.502880,-2.517503,-0.781707,8.840590,-0.061069,-0.015267,0.106870,-4.845230,-14.557071,219.784622
107559,55.591011,37.671997,0.787100,-0.605506,-0.502880,-2.129642,-0.578200,9.022549,-0.076336,-0.015267,0.091603,-4.747469,-14.642406,219.795333
107659,55.591011,37.671997,0.787100,-0.605506,-0.502880,-2.618060,-0.726640,8.701726,-0.045802,-0.015267,0.106870,-4.808619,-14.755812,219.806015
107759,55.591011,37.671997,0.787100,-0.605506,-0.502880,-2.449268,-0.676362,8.881292,0.045802,0.015267,0.030534,-4.754511,-14.915801,219.809066
107859,55.591011,37.671997,0.787100,-0.605506,-0.502880,-2.233790,-0.635661,9.194932,-0.122137,-0.030534,0.106870,-4.742887,-14.894175,219.819747
107959,55.591011,37.671997,0.787100,-0.605506,-0.502880,-2.686294,-0.768539,8.674193,-0.015267,0.000000,0.076336,-4.859142,-15.023058,219.827377
108059,55.591011,37.671997,0.787100,-0.605506,-0.502880,-2.273294,-0.543484,9.032126,0.015267,0.000000,0.045802,-4.713873,-15.100718,219.831954
108160,55.591011,37.671997,0.787100,-0.605506,-0.502880,-2.460042,-0.792481,8.987833,-0.122137,-0.030534,0.122137,-4.757881,-15.092453,219.844284
108260,55.591011,37.671997,0.787100,-0.605506,-0.502880,-2.726996,-0.787692,8.650251,0.030534,0.015267,0.030534,-4.777031,-15.271181,219.847335
108360,55.591011,37.671997,0.787100,-0.605506,-0.502880,-2.296039,-0.561440,9.072828,-0.076336,-0.015267,0.061069,-4.658936,-15.309703,219.853439
108460,55.591011,37.671997,0.787100,-0.605506,-0.502880,-2.718616,-0.854730,8.723275,-0.030534,-0.015267,0.122137,-4.760235,-15.402763,219.865646
108560,55.591011,37.671997,0.787100,-0.605506,-0.502880,-2.498349,-0.708684,8.869320,0.061069,0.015267,0.015267,-4.654322,-15.535895,219.867172
108660,55.591011,37.671997,0.787100,-0.605506,-0.502880,-2.308010,-0.676362,9.046491,-0.137405,-0.045802,0.122137,-4.600418,-15.497470,219.879379
108760,55.591011,37.671997,0.787100,-0.605506,-0.502880,-2.774880,-0.848744,8.570045,0.045802,0.015267,0.106870,-4.598120,-15.612572,219.890060
108860,55.591011,37.671997,0.787100,-0.605506,-0.502880,-2.352303,-0.445322,9.072828,-0.015267,0.000000,0.030534,-4.396530,-15.691642,219.893112
108960,55.591011,37.671997,0.787100,-0.605506,-0.502880,-2.554613,-0.822408,8.795101,-0.106870,-0.045802,0.137405,-4.504178,-15.670413,219.906845
109060,55.591011,37.671997,0.787100,-0.605506,-0.502880,-2.638410,-0.727837,8.938753,0.076336,0.030534,0.030534,-4.419544,-15.804975,219.909896
109160,55.591011,37.671997,0.787100,-0.605506,-0.502880,-2.185906,-0.527921,9.056068,-0.122137,-0.030534,0.091603,-4.349518,-15.766892,219.919052
109260,55.591011,37.671997,0.787100,-0.605506,-0.502880,-2.711433,-0.736217,8.629900,0.000000,0.000000,0.106870,-4.306688,-15.837160,219.929733
109360,55.591011,37.671997,0.787100,-0.605506,-0.502880,-2.202666,-0.454898,9.157822,-0.106870,-0.030534,0.061069,-4.053418,-15.874915,219.935836
109540,55.591011,37.672008,0.787100,-0.605506,-0.502880,-2.262521,-0.424971,9.072828,-0.106870,-0.030534,0.076336,-3.879006,-15.998263,219.949569
109640,55.591011,37.672008,0.787100,-0.605506,-0.502880,-2.776077,-0.750582,8.556878,-0.030534,-0.015267,0.137405,-3.967085,-16.072458,219.963302
109740,55.591011,37.672008,0.787100,-0.605506,-0.502880,-2.562993,-0.518345,8.900445,0.045802,0.015267,0.000000,-3.858042,-16.220176,219.963302
109840,55.591011,37.672008,0.787100,-0.605506,-0.502880,-2.528277,-0.769736,8.823831,-0.091603,-0.045802,0.137405,-3.958462,-16.150505,219.977035
109940,55.591011,37.672008,0.787100,-0.605506,-0.502880,-2.831144,-0.568623,8.700530,0.076336,0.030534,0.030534,-3.879257,-16.329429,219.980087
110040,55.591011,37.672008,0.787100,-0.605506,-0.502880,-2.203863,-0.509965,9.155427,-0.122137,-0.030534,0.091603,-3.861132,-16.213628,219.989242
110140,55.591011,37.672008,0.787100,-0.605506,-0.502880,-2.846706,-0.663194,8.714895,-0.015267,0.000000,0.106870,-3.936251,-16.275442,219.999923
110240,55.591011,37.672008,0.787100,-0.605506,-0.502880,-2.452860,-0.433350,9.009382,0.000000,0.000000,0.030534,-3.870545,-16.332237,220.002975
110340,55.591011,37.672008,0.787100,-0.605506,-0.502880,-2.343924,-0.723049,8.835802,-0.061069,-0.045802,0.106870,-3.928580,-16.224546,220.013656
110440,55.591011,37.672008,0.787100,-0.605506,-0.502880,-2.917335,-0.645237,8.625112,0.045802,0.015267,0.091603,-3.912627,-16.347900,220.022811
110540,55.591011,37.672008,0.787100,-0.605506,-0.502880,-2.275689,-0.383072,9.192538,-0.061069,-0.015267,0.030534,-3.785790,-16.325864,220.025863
110640,55.591011,37.672008,0.787100,-0.605506,-0.502880,-2.706645,-0.746991,8.644266,-0.030534,-0.015267,0.152672,-3.919460,-16.296531,220.041137
110740,55.591011,37.672008,0.787100,-0.605506,-0.502880,-2.474407,-0.499191,8.966286,0.045802,0.015267,0.000000,-3.830303,-16.405326,220.041137
110840,55.591011,37.672008,0.787100,-0.605506,-0.502880,-2.687491,-0.672771,8.621520,-0.030534,-0.015267,0.137405,-3.886107,-16.355808,220.054870
110940,55.591011,37.672008,0.787100,-0.605506,-0.502880,-2.402581,-0.369904,8.993819,0.000000,0.000000,0.000000,-3.731312,-16.479766,220.054870
111040,55.591011,37.672008,0.787100,-0.605506,-0.502880,-2.721010,-0.620098,8.719683,-0.030534,-0.015267,0.137405,-3.759187,-16.418031,220.068603
111140,55.591011,37.672008,0.787100,-0.605506,-0.502880,-2.499547,-0.325611,9.029732,0.015267,0.000000,-0.015267,-3.637332,-16.510915,220.067077
111240,55.591011,37.672008,0.787100,-0.605506,-0.502880,-2.397793,-0.630872,8.791509,-0.045802,-0.030534,0.091603,-3.646651,-16.382280,220.076232
111340,55.591011,37.672008,0.787100,-0.605506,-0.502880,-3.093309,-0.477643,8.640674,0.045802,0.030534,0.091603,-3.561483,-16.589269,220.085388
111527,55.591011,37.672008,0.787100,-0.605506,-0.502880,-3.034651,-0.579397,8.780735,0.030534,0.015267,0.045802,-3.492973,-16.979621,220.093948
111627,55.591011,37.672008,0.787100,-0.605506,-0.502880,-3.172317,-0.672771,8.670602,-0.030534,-0.015267,0.045802,-3.582517,-17.204889,220.098526
111727,55.591011,37.672008,0.787100,-0.605506,-0.502880,-3.275268,-0.721852,8.819043,-0.030534,0.000000,0.045802,-3.688923,-17.471555,220.103103
111827,55.591011,37.672008,0.787100,-0.605506,-0.502880,-3.259706,-0.761356,8.652646,-0.015267,0.000000,0.061069,-3.790334,-17.732826,220.109207
111927,55.591011,37.672008,0.787100,-0.605506,-0.502880,-3.313575,-0.830788,8.661026,-0.030534,0.000000,0.061069,-3.964663,-17.987810,220.115310
112027,55.591011,37.672008,0.787100,-0.605506,-0.502880,-3.331532,-0.897826,8.676588,-0.030534,0.000000,0.076336,-4.117388,-18.234895,220.122940
112128,55.591011,37.672008,0.787100,-0.605506,-0.502880,-3.360262,-0.940921,8.725668,-0.030534,0.000000,0.061069,-4.268130,-18.447202,220.129104
112228,55.591011,37.672008,0.787100,-0.605506,-0.502880,-3.394978,-0.755371,8.694544,-0.030534,0.000000,0.061069,-4.315217,-18.667043,220.135208
112328,55.591011,37.672008,0.787100,-0.605506,-0.502880,-3.333926,-0.682347,8.567651,-0.030534,-0.015267,0.061069,-4.255989,-18.877635,220.141311
112428,55.591011,37.672008,0.787100,-0.605506,-0.502880,-3.220201,-0.610521,8.700530,-0.045802,-0.015267,0.045802,-4.228415,-18.995632,220.145889
112528,55.591011,37.672008,0.787100,-0.605506,-0.502880,-3.183091,-0.885855,8.651449,-0.030534,-0.015267,0.061069,-4.279841,-19.086351,220.151992
112628,55.591011,37.672008,0.787100,-0.605506,-0.502880,-3.136404,-0.847547,8.644266,-0.015267,-0.015267,0.061069,-4.349998,-19.131526,220.158096
112728,55.591011,37.672008,0.787100,-0.605506,-0.502880,-3.150769,-0.711078,8.718486,-0.030534,0.000000,0.061069,-4.281683,-19.206436,220.164199
112828,55.591011,37.672008,0.787100,-0.605506,-0.502880,-3.096900,-0.657208,8.572440,0.000000,-0.015267,0.045802,-4.114895,-19.316999,220.168777
112928,55.591011,37.672008,0.787100,-0.605506,-0.502880,-3.132813,-0.635661,8.543709,-0.015267,0.000000,0.045802,-4.067533,-19.408620,220.173355
113028,55.591011,37.672008,0.787100,-0.605506,-0.502880,-3.106477,-0.781707,8.760384,-0.030534,0.000000,0.061069,-4.077098,-19.463083,220.179458
113128,55.591011,37.672008,0.787100,-0.605506,-0.502880,-3.131616,-0.687136,8.863335,-0.015267,-0.015267,0.061069,-4.073930,-19.491437,220.185562
113228,55.591011,37.672008,0.787100,-0.605506,-0.502880,-3.084929,-0.773327,8.749610,-0.030534,-0.015267,0.045802,-4.063594,-19.492126,220.190139
113328,55.591011,37.672008,0.787100,-0.605506,-0.502880,-3.074155,-0.651223,8.760384,-0.030534,-0.015267,0.045802,-4.010821,-19.441055,220.194717
113428,55.591011,37.672008,0.787100,-0.605506,-0.502880,-3.031059,-0.682347,8.779538,-0.015267,0.000000,0.045802,-3.933984,-19.344543,220.199295
113553,55.591014,37.672027,0.787100,-0.605506,-0.502880,-3.001132,-0.742202,8.771159,0.015267,-0.015267,0.061069,-3.798732,-19.253221,220.206924
113653,55.591014,37.672027,0.787100,-0.605506,-0.502880,-2.870648,-0.526724,8.608353,0.000000,-0.015267,0.061069,-3.678924,-19.160068,220.213027
113753,55.591014,37.672027,0.787100,-0.605506,-0.502880,-2.749741,-0.639252,8.884883,0.000000,0.000000,0.045802,-3.538942,-19.051298,220.217605
113853,55.591014,37.672027,0.787100,-0.605506,-0.502880,-2.948459,-0.260968,8.633492,-0.015267,-0.030534,0.030534,-3.362982,-18.990282,220.220657
113953,55.591014,37.672027,0.787100,-0.605506,-0.502880,-2.716222,-0.557849,8.716092,-0.015267,-0.015267,0.030534,-3.381412,-18.814790,220.223709
114053,55.591014,37.672027,0.787100,-0.605506,-0.502880,-2.758120,-0.470461,8.893262,-0.015267,-0.015267,0.030534,-3.349023,-18.672832,220.226760
114153,55.591014,37.672027,0.787100,-0.605506,-0.502880,-2.899378,-0.543484,8.621520,-0.015267,-0.015267,0.030534,-3.378469,-18.631437,220.229812
114253,55.591014,37.672027,0.787100,-0.605506,-0.502880,-3.051410,-0.585382,8.554483,-0.030534,0.000000,0.015267,-3.409729,-18.661434,220.231338
114353,55.591014,37.672027,0.787100,-0.605506,-0.502880,-3.293224,-0.743400,8.789114,-0.061069,-0.015267,0.015267,-3.554853,-18.823703,220.232864
114453,55.591014,37.672027,0.787100,-0.605506,-0.502880,-3.392584,-0.788889,8.578425,0.000000,0.000000,0.015267,-3.654813,-19.039892,220.234390
114553,55.591014,37.672027,0.787100,-0.605506,-0.502880,-3.416526,-0.653617,8.505402,-0.015267,0.000000,0.030534,-3.683422,-19.235269,220.237442
114653,55.591014,37.672027,0.787100,-0.605506,-0.502880,-3.477578,-0.646434,8.652646,0.000000,-0.015267,0.015267,-3.700858,-19.437906,220.238967
114753,55.591014,37.672027,0.787100,-0.605506,-0.502880,-3.305195,-0.555455,8.997410,-0.015267,0.000000,0.015267,-3.669831,-19.502164,220.240493
114853,55.591014,37.672027,0.787100,-0.605506,-0.502880,-3.251326,-0.420182,8.735245,0.000000,0.000000,0.015267,-3.508558,-19.610280,220.242019
114953,55.591014,37.672027,0.787100,-0.605506,-0.502880,-3.183091,-0.275333,8.331822,-0.015267,-0.015267,0.000000,-3.298702,-19.783296,220.242019
115053,55.591014,37.672027,0.787100,-0.605506,-0.502880,-3.217807,-0.447716,8.535329,-0.015267,-0.015267,0.000000,-3.299668,-19.798202,220.242019
115153,55.591014,37.672027,0.787100,-0.605506,-0.502880,-3.280056,-0.634463,8.643069,-0.015267,-0.030534,0.000000,-3.489186,-19.664087,220.242019
115253,55.591014,37.672027,0.787100,-0.605506,-0.502880,-3.045424,-0.644040,8.878897,-0.045802,-0.030534,-0.015267,-3.602649,-19.584302,220.240493
115353,55.591014,37.672027,0.787100,-0.605506,-0.502880,-3.110068,-0.816423,8.611944,0.000000,0.000000,0.000000,-3.678088,-19.622556,220.240493
115543,55.591014,37.672027,0.787100,-0.605506,-0.502880,-3.147178,-0.420182,8.637084,-0.030534,-0.015267,0.000000,-3.586537,-19.648061,220.240493
115643,55.591014,37.672027,0.787100,-0.605506,-0.502880,-3.087323,-0.658405,8.881292,0.000000,-0.015267,0.015267,-3.703149,-19.507314,220.242019
115743,55.591014,37.672027,0.787100,-0.605506,-0.502880,-3.123236,-0.549469,8.586805,-0.045802,-0.030534,0.000000,-3.961515,-19.278760,220.242019
115843,55.591014,37.672027,0.787100,-0.605506,-0.502880,-2.968810,-0.840365,8.626309,-0.015267,-0.015267,0.015267,-4.123476,-19.115493,220.243545
115943,55.591014,37.672027,0.787100,-0.605506,-0.502880,-3.017891,-0.932542,8.779538,0.000000,-0.030534,0.015267,-4.248834,-18.924800,220.245071
116043,55.591014,37.672027,0.787100,-0.605506,-0.502880,-2.940080,-0.732626,9.028535,0.015267,-0.030534,0.015267,-4.174942,-18.721509,220.246597
116143,55.591014,37.672027,0.787100,-0.605506,-0.502880,-2.937685,-0.657208,8.755596,0.000000,0.000000,0.015267,-4.055780,-18.606853,220.248123
116243,55.591014,37.672027,0.787100,-0.605506,-0.502880,-2.822764,-0.484826,8.520964,-0.030534,0.000000,0.015267,-4.065647,-18.604816,220.249649
116343,55.591014,37.672027,0.787100,-0.605506,-0.502880,-2.940080,-0.620098,8.604762,-0.030534,0.000000,0.015267,-4.234365,-18.705842,220.251174
116443,55.591014,37.672027,0.787100,-0.605506,-0.502880,-2.950854,-0.837971,8.619127,-0.030534,0.000000,0.015267,-4.472468,-18.697027,220.252700
116543,55.591014,37.672027,0.787100,-0.605506,-0.502880,-2.816778,-0.669179,8.983045,-0.015267,0.000000,0.015267,-4.580682,-18.617580,220.254226
116643,55.591014,37.672027,0.787100,-0.605506,-0.502880,-2.756923,-0.848744,9.461886,-0.015267,0.000000,0.015267,-4.501637,-18.584381,220.255752
116743,55.591014,37.672027,0.787100,-0.605506,-0.502880,-2.908955,-0.726640,9.154231,0.015267,0.030534,0.015267,-4.439892,-18.754371,220.257278
116843,55.591014,37.672027,0.787100,-0.605506,-0.502880,-3.011906,-0.428562,8.688558,0.000000,0.015267,0.000000,-4.169660,-19.044540,220.257278
116943,55.591014,37.672027,0.787100,-0.605506,-0.502880,-2.950854,-0.320823,8.571243,-0.030534,0.000000,0.000000,-4.041913,-19.125558,220.257278
117043,55.591014,37.672027,0.787100,-0.605506,-0.502880,-2.890999,-0.489614,8.553286,-0.030534,-0.015267,-0.015267,-4.166327,-19.043321,220.255752
117143,55.591014,37.672027,0.787100,-0.605506,-0.502880,-2.782062,-0.724246,8.665814,-0.030534,-0.015267,0.000000,-4.409944,-18.939935,220.255752
117243,55.591014,37.672027,0.787100,-0.605506,-0.502880,-2.920926,-0.884657,9.017761,-0.030534,0.000000,0.000000,-4.587903,-18.940551,220.255752
117343,55.591014,37.672027,0.787100,-0.605506,-0.502880,-2.913743,-0.920571,9.384074,0.030534,-0.015267,0.015267,-4.513577,-18.732509,220.257278
117525,55.591014,37.672027,0.787100,-0.605506,-0.502880,-2.770091,-0.438139,8.593988,0.000000,0.000000,0.000000,-4.187810,-18.663576,220.257278
117625,55.591014,37.672027,0.787100,-0.605506,-0.502880,-2.716222,-0.614113,8.665814,0.015267,-0.015267,0.015267,-4.065698,-18.579702,220.258804
117725,55.591014,37.672027,0.787100,-0.605506,-0.502880,-2.456451,-0.524330,8.726865,-0.015267,-0.015267,0.000000,-3.997389,-18.421518,220.258804
117825,55.591014,37.672027,0.787100,-0.605506,-0.502880,-2.291251,-0.156820,8.748414,-0.015267,-0.030534,0.000000,-3.947205,-18.093357,220.258804
117925,55.591014,37.672027,0.787100,-0.605506,-0.502880,-2.187103,-0.477643,8.979454,-0.030534,-0.015267,-0.015267,-3.967152,-17.660591,220.257278
118025,55.591014,37.672027,0.787100,-0.605506,-0.502880,-1.910573,-0.302867,9.306262,0.000000,-0.030534,-0.015267,-3.893705,-17.140317,220.255752
118125,55.591014,37.672027,0.787100,-0.605506,-0.502880,-1.622072,-0.401029,9.056068,0.000000,-0.030534,-0.015267,-3.720970,-16.524875,220.254226
118225,55.591014,37.672027,0.787100,-0.605506,-0.502880,-1.587356,-0.280122,9.533712,0.030534,-0.015267,0.000000,-3.419770,-15.986255,220.254226
118325,55.591014,37.672027,0.787100,-0.605506,-0.502880,-1.528698,-0.292093,9.063251,0.000000,0.000000,-0.015267,-3.186536,-15.536921,220.252700
118425,55.591014,37.672027,0.787100,-0.605506,-0.502880,-1.486799,0.237026,8.930373,-0.030534,0.000000,-0.015267,-2.976680,-15.137166,220.251174
118525,55.591014,37.672027,0.787100,-0.605506,-0.502880,-1.428141,-0.254982,8.880095,-0.030534,0.015267,-0.015267,-3.027940,-14.837237,220.249649
118625,55.591014,37.672027,0.787100,-0.605506,-0.502880,-1.696292,-0.331597,8.696938,-0.030534,0.000000,0.000000,-3.199421,-14.532228,220.249649
118725,55.591014,37.672027,0.787100,-0.605506,-0.502880,-1.915361,-0.677559,9.113530,-0.015267,0.015267,0.000000,-3.348562,-14.419002,220.249649
118825,55.591014,37.672027,0.787100,-0.605506,-0.502880,-1.918953,-0.693121,9.077616,0.000000,0.000000,0.000000,-3.396116,-14.211370,220.249649
118925,55.591014,37.672027,0.787100,-0.605506,-0.502880,-1.825579,-0.553061,9.427169,0.030534,0.000000,0.000000,-3.299170,-13.913442,220.249649
119025,55.591014,37.672027,0.787100,-0.605506,-0.502880,-1.794454,-0.392649,9.170990,0.000000,-0.015267,0.000000,-3.160490,-13.666479,220.249649
119126,55.591014,37.672027,0.787100,-0.605506,-0.502880,-1.841141,-0.317232,8.966286,0.000000,-0.015267,0.000000,-3.072791,-13.439517,220.249649
119226,55.591014,37.672027,0.787100,-0.605506,-0.502880,-2.070984,-0.571017,8.718486,-0.015267,-0.015267,0.000000,-3.165337,-13.367317,220.249649
119326,55.591014,37.672027,0.787100,-0.605506,-0.502880,-2.207454,-0.621295,8.621520,-0.030534,-0.015267,0.000000,-3.365279,-13.437966,220.249649
119426,55.591014,37.672027,0.787100,-0.605506,-0.502880,-2.224213,-0.820014,8.943541,-0.015267,-0.015267,0.015267,-3.647747,-13.451449,220.251174
119554,55.591102,37.672245,0.787100,-0.605506,-0.502880,-2.245761,-0.797269,8.984242,0.000000,-0.015267,0.015267,-3.824190,-13.456020,220.253128
119654,55.591102,37.672245,0.787100,-0.605506,-0.502880,-2.282871,-0.693121,9.418790,-0.030534,0.000000,0.015267,-3.775258,-13.491819,220.254653
119754,55.591102,37.672245,0.787100,-0.605506,-0.502880,-2.130840,-0.691924,8.882489,0.000000,-0.015267,0.015267,-3.794239,-13.608915,220.256179
119854,55.591102,37.672245,0.787100,-0.605506,-0.502880,-2.355895,-0.416591,8.641872,-0.030534,-0.015267,0.000000,-3.809121,-13.725301,220.256179
119954,55.591102,37.672245,0.787100,-0.605506,-0.502880,-2.252944,-0.677559,9.016564,-0.015267,0.000000,0.000000,-3.852331,-13.741406,220.256179
120054,55.591102,37.672245,0.787100,-0.605506,-0.502880,-2.194286,-0.711078,9.106347,0.000000,0.000000,0.000000,-4.004542,-13.796008,220.256179
120154,55.591102,37.672245,0.787100,-0.605506,-0.502880,-2.246958,-0.685939,9.409214,0.061069,0.030534,0.000000,-4.001794,-13.991155,220.256179
120254,55.591102,37.672245,0.787100,-0.605506,-0.502880,-2.252944,-0.634463,9.218874,-0.030534,0.045802,-0.015267,-4.017850,-14.305344,220.254653
120354,55.591102,37.672245,0.787100,-0.605506,-0.502880,-2.369063,-0.472855,8.765172,0.000000,0.045802,0.000000,-3.980621,-14.756103,220.254653
120454,55.591102,37.672245,0.787100,-0.605506,-0.502880,-2.390610,-0.501585,8.807071,-0.030534,0.000000,0.015267,-3.931297,-15.050230,220.256179
120554,55.591102,37.672245,0.787100,-0.605506,-0.502880,-2.646790,-0.533907,8.821436,0.000000,0.015267,0.000000,-3.962329,-15.264182,220.256179
120654,55.591102,37.672245,0.787100,-0.605506,-0.502880,-2.786851,-0.726640,8.676588,0.015267,0.000000,0.000000,-4.018474,-15.604240,220.256179
120754,55.591102,37.672245,0.787100,-0.605506,-0.502880,-2.841917,-0.696713,9.323022,0.000000,0.030534,0.000000,-3.913199,-15.956337,220.256179
120854,55.591102,37.672245,0.787100,-0.605506,-0.502880,-2.981978,-0.211887,9.135077,0.030534,0.030534,-0.015267,-3.611888,-16.359125,220.254653
120954,55.591102,37.672245,0.787100,-0.605506,-0.502880,-2.807201,0.026336,8.944738,0.015267,0.000000,-0.030534,-3.156205,-16.608894,220.251602
121054,55.591102,37.672245,0.787100,-0.605506,-0.502880,-2.685097,0.096965,8.763976,0.015267,0.000000,-0.045802,-2.734855,-16.684911,220.247024
121154,55.591102,37.672245,0.787100,-0.605506,-0.502880,-2.731784,0.052672,8.681376,0.030534,0.000000,-0.061069,-2.452770,-16.735851,220.240921
121254,55.591102,37.672245,0.787100,-0.605506,-0.502880,-2.742558,-0.021548,8.815451,0.000000,0.000000,-0.076336,-2.323884,-16.845457,220.233291
121354,55.591102,37.672245,0.787100,-0.605506,-0.502880,-2.711433,-0.055067,8.927979,0.015267,0.015267,-0.076336,-2.178890,-17.020177,220.225662
121541,55.591102,37.672245,0.787100,-0.605506,-0.502880,-2.826355,-0.120907,8.955512,0.015267,0.030534,-0.061069,-2.075860,-17.564857,220.214248
121641,55.591102,37.672245,0.787100,-0.605506,-0.502880,-2.987964,-0.110133,8.918402,0.030534,0.015267,-0.061069,-1.960011,-17.878639,220.208145
121741,55.591102,37.672245,0.787100,-0.605506,-0.502880,-2.904167,-0.062249,8.786721,0.000000,0.015267,-0.076336,-1.949531,-18.179683,220.200515
121841,55.591102,37.672245,0.787100,-0.605506,-0.502880,-2.908955,-0.112527,8.921993,-0.015267,0.015267,-0.076336,-2.011594,-18.449090,220.192886
121942,55.591102,37.672245,0.787100,-0.605506,-0.502880,-3.076549,-0.031125,8.687361,0.015267,0.030534,-0.076336,-2.066724,-18.817365,220.185180
122042,55.591102,37.672245,0.787100,-0.605506,-0.502880,-3.019088,-0.357933,8.591593,0.015267,0.015267,-0.076336,-2.103320,-19.074031,220.177551
122142,55.591102,37.672245,0.787100,-0.605506,-0.502880,-3.159149,-0.035913,8.552089,0.000000,0.000000,-0.076336,-2.062327,-19.288869,220.169921
122242,55.591102,37.672245,0.787100,-0.605506,-0.502880,-3.044227,-0.248997,8.955512,0.000000,0.000000,-0.076336,-2.022014,-19.354309,220.162292
122342,55.591102,37.672245,0.787100,-0.605506,-0.502880,-2.880225,-0.062249,8.780735,0.000000,-0.015267,-0.091603,-2.058285,-19.314338,220.153137
122442,55.591102,37.672245,0.787100,-0.605506,-0.502880,-2.764106,-0.039504,8.856153,0.000000,-0.015267,-0.076336,-2.156049,-19.111322,220.145507
122542,55.591102,37.672245,0.787100,-0.605506,-0.502880,-2.561796,-0.414197,8.844182,0.015267,-0.030534,-0.076336,-2.326442,-18.770584,220.137878
122642,55.591102,37.672245,0.787100,-0.605506,-0.502880,-2.580950,-0.263362,8.814254,0.015267,-0.015267,-0.076336,-2.419769,-18.402873,220.130249
122742,55.591102,37.672245,0.787100,-0.605506,-0.502880,-2.436100,-0.281319,8.708909,0.015267,-0.015267,-0.076336,-2.434497,-17.978994,220.122619
122842,55.591102,37.672245,0.787100,-0.605506,-0.502880,-2.219425,-0.311246,8.658631,0.000000,0.000000,-0.045802,-2.461448,-17.545566,220.118041
122942,55.591102,37.672245,0.787100,-0.605506,-0.502880,-2.144008,-0.213084,8.956709,0.000000,0.000000,-0.061069,-2.413521,-17.222330,220.111938
123042,55.591102,37.672245,0.787100,-0.605506,-0.502880,-2.118869,-0.263362,8.874109,0.015267,-0.015267,-0.076336,-2.413217,-16.835689,220.104309
123142,55.591102,37.672245,0.787100,-0.605506,-0.502880,-2.062605,-0.542287,8.948329,0.015267,-0.015267,-0.076336,-2.477924,-16.426969,220.096679
123242,55.591102,37.672245,0.787100,-0.605506,-0.502880,-2.279280,-0.355539,8.846576,0.030534,-0.030534,-0.061069,-2.304045,-16.028964,220.090576
123342,55.591102,37.672245,0.787100,-0.605506,-0.502880,-1.928529,-0.119710,8.550891,0.000000,-0.061069,-0.030534,-2.134504,-15.503487,220.087524
123442,55.591129,37.672405,0.787100,-0.605506,-0.502880,-1.906982,-0.302867,8.920796,-0.015267,-0.061069,-0.045802,-2.131072,-14.833703,220.082946
123561,55.591129,37.672405,0.787100,-0.605506,-0.502880,-1.971625,-0.508768,9.208100,-0.015267,-0.045802,-0.061069,-2.262266,-14.271978,220.075683
123661,55.591129,37.672405,0.787100,-0.605506,-0.502880,-2.059013,-0.556652,9.129092,-0.015267,-0.045802,-0.061069,-2.284454,-13.925765,220.069580
123761,55.591129,37.672405,0.787100,-0.605506,-0.502880,-2.372654,-0.459687,9.004593,0.045802,-0.030534,-0.045802,-2.150862,-13.761410,220.065002
123862,55.591129,37.672405,0.787100,-0.605506,-0.502880,-2.243367,-0.313640,8.808268,0.015267,-0.045802,-0.030534,-2.051286,-13.541934,220.061920
123962,55.591129,37.672405,0.787100,-0.605506,-0.502880,-1.830367,-0.410606,8.939949,0.000000,-0.045802,-0.015267,-1.999558,-13.192978,220.060394
124062,55.591129,37.672405,0.787100,-0.605506,-0.502880,-1.722628,-0.553061,9.127895,0.015267,-0.045802,-0.045802,-2.010226,-12.828057,220.055816
124162,55.591129,37.672405,0.787100,-0.605506,-0.502880,-2.321178,-0.434548,8.913614,0.000000,-0.030534,-0.061069,-2.030967,-12.639657,220.049713
124262,55.591129,37.672405,0.787100,-0.605506,-0.502880,-1.811214,-0.396240,8.932767,0.000000,-0.045802,-0.015267,-2.040662,-12.359722,220.048187
124362,55.591129,37.672405,0.787100,-0.605506,-0.502880,-1.540669,-0.527921,9.053674,0.000000,-0.030534,-0.061069,-2.125598,-12.073450,220.042083
124462,55.591129,37.672405,0.787100,-0.605506,-0.502880,-1.856703,-0.621295,8.984242,0.000000,-0.030534,0.000000,-2.143218,-11.720057,220.042083
124562,55.591129,37.672405,0.787100,-0.605506,-0.502880,-1.647211,-0.481235,9.198523,0.030534,-0.015267,-0.061069,-2.036585,-11.581620,220.035980
124662,55.591129,37.672405,0.787100,-0.605506,-0.502880,-1.703474,-0.466869,8.962695,0.015267,-0.015267,0.000000,-1.857385,-11.342010,220.035980
124762,55.591129,37.672405,0.787100,-0.605506,-0.502880,-1.946486,-0.367510,8.848970,0.091603,-0.015267,-0.045802,-1.601826,-11.381518,220.031402
124862,55.591129,37.672405,0.787100,-0.605506,-0.502880,-1.479617,-0.131681,9.172187,-0.076336,-0.045802,-0.030534,-1.364934,-11.210929,220.028350
124962,55.591129,37.672405,0.787100,-0.605506,-0.502880,-2.015918,-0.197522,8.659828,-0.015267,-0.015267,0.015267,-1.352329,-11.114002,220.029876
125062,55.591129,37.672405,0.787100,-0.605506,-0.502880,-1.709460,-0.210690,9.149442,-0.015267,-0.015267,-0.061069,-1.390284,-11.079489,220.023773
125162,55.591129,37.672405,0.787100,-0.605506,-0.502880,-2.240973,-0.536301,8.717288,-0.015267,-0.015267,0.030534,-1.710974,-11.013760,220.026824
125262,55.591129,37.672405,0.787100,-0.605506,-0.502880,-2.031480,-0.919373,9.178173,0.122137,0.000000,-0.076336,-1.644729,-11.055804,220.019195
125362,55.591129,37.672405,0.787100,-0.605506,-0.502880,-2.347515,-0.356736,8.899249,0.045802,0.015267,0.015267,-1.382531,-11.012008,220.020721
125553,55.591129,37.672405,0.787100,-0.605506,-0.502880,-1.467646,0.197522,8.978257,-0.015267,-0.030534,-0.076336,-0.756583,-10.832791,220.006134
125654,55.591129,37.672405,0.787100,-0.605506,-0.502880,-2.388216,-0.130484,8.342597,-0.045802,-0.015267,0.030534,-0.954194,-10.918054,220.009216
125754,55.591129,37.672405,0.787100,-0.605506,-0.502880,-1.567005,-0.260968,9.289503,-0.030534,-0.045802,-0.091603,-1.378700,-10.738694,220.000061
125854,55.591129,37.672405,0.787100,-0.605506,-0.502880,-2.201468,-0.622492,9.404425,-0.015267,0.000000,-0.045802,-1.799307,-10.592968,219.995483
125954,55.591129,37.672405,0.787100,-0.605506,-0.502880,-2.013524,-0.574608,9.490616,0.015267,0.000000,-0.076336,-1.946965,-10.664216,219.987854
126054,55.591129,37.672405,0.787100,-0.605506,-0.502880,-2.117671,-0.561440,8.992622,0.015267,0.000000,0.030534,-1.916368,-10.778709,219.990905
126154,55.591129,37.672405,0.787100,-0.605506,-0.502880,-2.298434,-0.168791,8.815451,0.045802,0.000000,-0.076336,-1.702023,-11.181971,219.983276
126254,55.591129,37.672405,0.787100,-0.605506,-0.502880,-2.114080,-0.126893,8.917204,-0.015267,-0.015267,-0.091603,-1.649737,-11.395331,219.974121
126354,55.591129,37.672405,0.787100,-0.605506,-0.502880,-2.499547,-0.344765,8.874109,0.000000,0.015267,-0.030534,-1.742755,-11.571684,219.971069
126454,55.591129,37.672405,0.787100,-0.605506,-0.502880,-1.915361,-0.276530,9.221268,-0.030534,-0.015267,-0.091603,-1.763496,-11.649049,219.961914
126554,55.591129,37.672405,0.787100,-0.605506,-0.502880,-2.455254,-0.434548,8.779538,0.015267,0.000000,0.015267,-1.854391,-11.811728,219.963439
126654,55.591129,37.672405,0.787100,-0.605506,-0.502880,-2.013524,-0.237026,9.139865,0.030534,-0.015267,-0.122137,-1.816185,-11.945402,219.951232
126754,55.591129,37.672405,0.787100,-0.605506,-0.502880,-2.126051,-0.439336,8.904037,-0.015267,-0.030534,0.000000,-1.897582,-11.958830,219.951232
126854,55.591129,37.672405,0.787100,-0.605506,-0.502880,-2.110489,-0.271742,8.937556,0.045802,0.000000,-0.106870,-1.884517,-12.102399,219.940551
126954,55.591129,37.672405,0.787100,-0.605506,-0.502880,-1.467646,-0.314838,9.119515,-0.045802,-0.030534,-0.030534,-1.879158,-11.876560,219.937500
127054,55.591129,37.672405,0.787100,-0.605506,-0.502880,-2.151190,-0.290895,8.993819,0.030534,0.015267,-0.015267,-1.840881,-11.881288,219.935974
127154,55.591129,37.672405,0.787100,-0.605506,-0.502880,-1.964443,-0.217872,9.232042,0.015267,0.000000,-0.122137,-1.750804,-11.966102,219.923767
127254,55.591129,37.672405,0.787100,-0.605506,-0.502880,-2.035071,-0.439336,8.948329,0.000000,-0.015267,-0.015267,-1.788840,-12.034233,219.922241
127354,55.591129,37.672405,0.787100,-0.605506,-0.502880,-2.404976,-0.256180,8.876503,0.030534,0.000000,-0.091603,-1.725822,-12.258401,219.913085
127547,55.591129,37.672405,0.787100,-0.605506,-0.502880,-2.443283,-0.421379,8.661026,0.015267,0.000000,0.015267,-1.755646,-12.462678,219.916030
127647,55.591129,37.672405,0.787100,-0.605506,-0.502880,-2.545036,-0.432153,8.777144,0.045802,0.015267,-0.061069,-1.766048,-12.642585,219.909927
127747,55.591129,37.672405,0.787100,-0.605506,-0.502880,-1.995567,-0.146046,9.336190,-0.030534,-0.015267,-0.137405,-1.715220,-12.733366,219.896194
127847,55.591129,37.672405,0.787100,-0.605506,-0.502880,-2.409764,-0.477643,8.690953,0.015267,0.000000,0.000000,-1.768706,-12.816237,219.896194
127947,55.591129,37.672405,0.787100,-0.605506,-0.502880,-2.223016,-0.246603,9.006987,0.045802,0.015267,-0.167939,-1.722501,-13.091192,219.879394
128047,55.591129,37.672405,0.787100,-0.605506,-0.502880,-2.292448,-0.360327,8.899249,0.000000,-0.030534,0.000000,-1.765457,-13.119819,219.879394
128147,55.591129,37.672405,0.787100,-0.605506,-0.502880,-2.116474,-0.361524,9.160216,0.076336,0.000000,-0.167939,-1.795525,-13.213635,219.862594
128247,55.591129,37.672405,0.787100,-0.605506,-0.502880,-2.270900,-0.457293,8.763976,0.015267,-0.015267,-0.030534,-1.852337,-13.203187,219.859542
128347,55.591129,37.672405,0.787100,-0.605506,-0.502880,-2.365471,-0.221464,8.938753,0.091603,0.015267,-0.137405,-1.752815,-13.433766,219.845809
128447,55.591129,37.672405,0.787100,-0.605506,-0.502880,-1.871069,-0.322020,8.954315,0.015267,-0.015267,-0.091603,-1.750118,-13.423707,219.836654
128547,55.591129,37.672405,0.787100,-0.605506,-0.502880,-2.661155,-0.387861,8.652646,0.045802,0.030534,-0.061069,-1.649454,-13.824823,219.830551
128647,55.591129,37.672405,0.787100,-0.605506,-0.502880,-2.561796,0.083797,8.985440,0.030534,0.030534,-0.137405,-1.343476,-14.287081,219.816818
128747,55.591129,37.672405,0.787100,-0.605506,-0.502880,-2.120066,-0.063446,8.980651,0.000000,-0.015267,-0.106870,-1.301451,-14.353313,219.806137
128847,55.591129,37.672405,0.787100,-0.605506,-0.502880,-2.749741,-0.135272,8.742428,0.015267,0.015267,-0.091603,-1.408036,-14.466132,219.796981
128947,55.591129,37.672405,0.787100,-0.605506,-0.502880,-2.213439,-0.210690,9.127895,-0.030534,-0.015267,-0.152672,-1.546070,-14.498393,219.781707
129047,55.591129,37.672405,0.787100,-0.605506,-0.502880,-2.820370,-0.372298,8.844182,0.030534,0.015267,-0.091603,-1.694767,-14.655895,219.772552
129147,55.591129,37.672405,0.787100,-0.605506,-0.502880,-2.390610,-0.342371,9.014170,-0.015267,0.000000,-0.091603,-1.738016,-14.686363,219.763397
129247,55.591129,37.672405,0.787100,-0.605506,-0.502880,-2.686294,-0.223858,8.790312,0.045802,0.030534,-0.122137,-1.751081,-14.917749,219.751190
129347,55.591129,37.672405,0.787100,-0.605506,-0.502880,-2.847903,-0.175974,8.765172,0.030534,0.000000,-0.122137,-1.705153,-15.155429,219.738983
129611,55.591129,37.672405,0.787100,-0.605506,-0.502880,-3.517082,-0.180762,8.404846,0.015267,0.015267,-0.137405,-1.863424,-16.317523,219.702713
129711,55.591129,37.672405,0.787100,-0.605506,-0.502880,-3.593697,-0.016759,8.554483,0.030534,0.015267,-0.167939,-1.894710,-16.942483,219.685913
129811,55.591129,37.672405,0.787100,-0.605506,-0.502880,-3.545813,-0.361524,8.704121,0.030534,0.000000,-0.183206,-2.089927,-17.445314,219.667587
129911,55.591129,37.672405,0.787100,-0.605506,-0.502880,-3.689465,-0.350751,8.872912,0.045802,-0.015267,-0.183206,-2.348083,-17.837242,219.649261
130011,55.591129,37.672405,0.787100,-0.605506,-0.502880,-3.475184,-0.276530,8.819043,0.045802,0.000000,-0.198473,-2.400107,-18.022058,219.629409
130111,55.591129,37.672405,0.787100,-0.605506,-0.502880,-3.239355,-0.142455,8.729260,0.045802,0.000000,-0.198473,-2.325987,-18.126134,219.609558
130211,55.591129,37.672405,0.787100,-0.605506,-0.502880,-3.198653,0.009577,8.565257,0.045802,0.000000,-0.198473,-2.223664,-18.279003,219.589706
130311,55.591129,37.672405,0.787100,-0.605506,-0.502880,-3.204639,-0.071826,8.538921,0.061069,0.000000,-0.198473,-2.180542,-18.431947,219.569854
130411,55.591129,37.672405,0.787100,-0.605506,-0.502880,-3.264494,-0.047884,8.543709,0.045802,-0.015267,-0.213740,-2.166535,-18.576051,219.548477
130511,55.591129,37.672405,0.787100,-0.605506,-0.502880,-3.289633,-0.202310,8.833408,0.030534,0.000000,-0.198473,-2.241187,-18.690464,219.528625
130611,55.591129,37.672405,0.787100,-0.605506,-0.502880,-3.392584,-0.422577,8.605958,0.030534,-0.015267,-0.198473,-2.446939,-18.883666,219.508773
130711,55.591129,37.672405,0.787100,-0.605506,-0.502880,-3.587711,-0.585382,8.658631,0.015267,-0.015267,-0.167939,-2.784637,-19.102293,219.491973
130811,55.591129,37.672405,0.787100,-0.605506,-0.502880,-3.372233,-0.645237,8.622718,0.015267,-0.015267,-0.167939,-3.035422,-19.247474,219.475173
130911,55.591129,37.672405,0.787100,-0.605506,-0.502880,-3.262100,-0.427365,8.540118,0.015267,0.000000,-0.152672,-3.201018,-19.336780,219.459899
131011,55.591129,37.672405,0.787100,-0.605506,-0.502880,-3.318364,-0.675165,8.628704,0.015267,0.000000,-0.137405,-3.399388,-19.435960,219.446166
131111,55.591129,37.672405,0.787100,-0.605506,-0.502880,-3.384204,-0.738611,8.690953,0.015267,0.000000,-0.106870,-3.618818,-19.559322,219.435485
131211,55.591129,37.672405,0.787100,-0.605506,-0.502880,-3.473987,-0.618901,8.586805,0.015267,-0.015267,-0.106870,-3.757821,-19.656793,219.424804
131311,55.591129,37.672405,0.787100,-0.605506,-0.502880,-3.505111,-0.603339,8.724472,0.030534,0.000000,-0.091603,-3.805582,-19.750930,219.415649
131619,55.591114,37.672500,0.787100,-0.605506,-0.502880,-3.648763,-0.599748,8.620324,0.030534,0.000000,-0.076336,-3.958861,-20.346950,219.392135
131719,55.591114,37.672500,0.787100,-0.605506,-0.502880,-3.509900,-0.464475,8.696938,0.015267,0.000000,-0.076336,-3.949936,-20.494468,219.384506
131819,55.591114,37.672500,0.787100,-0.605506,-0.502880,-3.590106,-0.347159,8.839393,0.000000,-0.015267,-0.091603,-3.912675,-20.619009,219.375350
131919,55.591114,37.672500,0.787100,-0.605506,-0.502880,-3.430891,-0.375890,8.614338,0.015267,-0.015267,-0.076336,-3.782801,-20.674629,219.367721
132019,55.591114,37.672500,0.787100,-0.605506,-0.502880,-3.396175,-0.165200,8.277953,0.000000,0.000000,-0.076336,-3.721767,-20.785209,219.360092
132119,55.591114,37.672500,0.787100,-0.605506,-0.502880,-3.434482,-0.262165,8.554483,0.000000,0.000000,-0.091603,-3.650597,-20.931350,219.350936
132219,55.591114,37.672500,0.787100,-0.605506,-0.502880,-3.506308,-0.269348,8.910022,0.015267,0.000000,-0.091603,-3.618289,-20.999271,219.341781
132319,55.591114,37.672500,0.787100,-0.605506,-0.502880,-3.415329,-0.355539,8.641872,0.015267,-0.015267,-0.091603,-3.568603,-21.008300,219.332626
132419,55.591114,37.672500,0.787100,-0.605506,-0.502880,-3.420117,-0.011971,8.792706,0.030534,-0.015267,-0.076336,-3.413825,-20.929012,219.324996
132519,55.591114,37.672500,0.787100,-0.605506,-0.502880,-3.295619,-0.105345,8.391677,0.015267,0.000000,-0.091603,-3.409374,-20.966068,219.315841
132619,55.591114,37.672500,0.787100,-0.605506,-0.502880,-3.349488,-0.293290,8.759187,0.030534,-0.015267,-0.091603,-3.436843,-20.902189,219.306686
132719,55.591114,37.672500,0.787100,-0.605506,-0.502880,-3.287239,-0.172383,8.640674,0.000000,0.000000,-0.091603,-3.470810,-20.908288,219.297531
132819,55.591114,37.672500,0.787100,-0.605506,-0.502880,-3.239355,-0.256180,8.619127,0.015267,-0.015267,-0.091603,-3.522964,-20.906316,219.288375
132919,55.591114,37.672500,0.787100,-0.605506,-0.502880,-14.437037,-35.702335,37.068229,-375.358764,460.183197,206.137405,-39.660438,6.945048,239.902114
133019,55.591114,37.672500,0.787100,-0.605506,-0.502880,-3.344700,-0.187945,8.930373,0.015267,0.000000,-0.076336,-3.485664,-20.824102,239.894485
133120,55.591114,37.672500,0.787100,-0.605506,-0.502880,-3.186682,-0.373495,8.474277,0.015267,0.000000,-0.076336,-3.478532,-20.824735,239.886779
133220,55.591114,37.672500,0.787100,-0.605506,-0.502880,-3.179500,-0.424971,8.840590,-0.015267,0.000000,-0.076336,-3.514797,-20.732143,239.879150
133320,55.591114,37.672500,0.787100,-0.605506,-0.502880,-3.197456,-0.300472,8.743625,0.015267,-0.015267,-0.061069,-3.496491,-20.607633,239.873046
133423,55.591114,37.672500,0.787100,-0.605506,-0.502880,-3.125630,-0.426168,8.968680,-0.015267,0.000000,-0.061069,-3.570489,-20.501752,239.866760
133572,55.591068,37.672527,0.787100,-0.605506,-0.502880,-3.113659,-0.525527,8.819043,0.000000,-0.015267,-0.061069,-3.609776,-20.382688,219.710006
133672,55.591068,37.672527,0.787100,-0.605506,-0.502880,-2.766500,-0.547075,8.754399,0.015267,-0.015267,-0.061069,-3.615852,-20.120420,219.703903
133772,55.591068,37.672527,0.787100,-0.605506,-0.502880,-2.565387,-0.751779,8.990228,0.000000,-0.015267,-0.030534,-3.748877,-19.776176,219.700851
133872,55.591068,37.672527,0.787100,-0.605506,-0.502880,-2.323573,-0.820014,8.859744,0.000000,-0.015267,-0.015267,-3.987687,-19.360347,219.699325
133972,55.591068,37.672527,0.787100,-0.605506,-0.502880,-2.219425,-1.006762,9.151837,-0.015267,-0.015267,0.000000,-4.089205,-18.895324,219.699325
134072,55.591068,37.672527,0.787100,-0.605506,-0.502880,-1.934515,-0.746991,8.898051,0.015267,0.000000,0.000000,-4.092634,-18.469373,219.699325
134172,55.591068,37.672527,0.787100,-0.605506,-0.502880,-2.081758,-0.557849,8.971075,0.000000,0.000000,0.000000,-3.891166,-18.143978,219.699325
134272,55.591068,37.672527,0.787100,-0.605506,-0.502880,-2.123657,-0.487220,8.886080,-0.015267,0.000000,0.000000,-3.791508,-17.860704,219.699325
134372,55.591068,37.672527,0.787100,-0.605506,-0.502880,-2.485181,-0.597353,8.887277,0.000000,-0.015267,0.000000,-3.792224,-17.641206,219.699325
134472,55.591068,37.672527,0.787100,-0.605506,-0.502880,-2.517503,-0.842759,9.023747,0.000000,-0.015267,0.000000,-3.874793,-17.524648,219.699325
134572,55.591068,37.672527,0.787100,-0.605506,-0.502880,-2.612074,-0.553061,9.030929,-0.015267,-0.015267,-0.015267,-3.961000,-17.418645,219.697799
134672,55.591068,37.672527,0.787100,-0.605506,-0.502880,-2.582147,-0.760159,8.680179,0.000000,0.000000,0.000000,-4.031642,-17.393344,219.697799
134772,55.591068,37.672527,0.787100,-0.605506,-0.502880,-2.546233,-0.639252,8.686164,-0.015267,-0.015267,0.000000,-4.107890,-17.223163,219.697799
134872,55.591068,37.672527,0.787100,-0.605506,-0.502880,-2.622848,-0.900220,8.753202,-0.015267,0.000000,0.000000,-4.157488,-17.108486,219.697799
134972,55.591068,37.672527,0.787100,-0.605506,-0.502880,-2.718616,-0.906205,8.822633,0.000000,0.015267,0.000000,-4.176023,-17.088945,219.697799
135072,55.591068,37.672527,0.787100,-0.605506,-0.502880,-2.742558,-0.780510,8.930373,-0.015267,0.015267,0.000000,-4.134157,-17.149610,219.697799
135172,55.591068,37.672527,0.787100,-0.605506,-0.502880,-2.886210,-0.769736,8.615535,-0.015267,0.000000,0.000000,-4.194141,-17.286483,219.697799
135272,55.591068,37.672527,0.787100,-0.605506,-0.502880,-2.873042,-0.875081,8.523359,-0.015267,0.000000,0.000000,-4.327528,-17.424663,219.697799
135372,55.591068,37.672527,0.787100,-0.605506,-0.502880,-2.932897,-0.963666,8.510190,0.000000,0.000000,0.000000,-4.488921,-17.668859,219.697799
135565,55.591068,37.672527,0.787100,-0.605506,-0.502880,-3.106477,-0.826000,8.725668,-0.030534,-0.015267,-0.015267,-4.635277,-17.995481,219.694854
135665,55.591068,37.672527,0.787100,-0.605506,-0.502880,-3.192668,-0.916979,8.683770,-0.015267,-0.015267,0.000000,-4.692319,-18.136178,219.694854
135766,55.591068,37.672527,0.787100,-0.605506,-0.502880,-3.326743,-0.788889,8.511387,0.015267,-0.015267,-0.015267,-4.675086,-18.357276,219.693313
135866,55.591068,37.672527,0.787100,-0.605506,-0.502880,-3.318364,-0.420182,8.452730,0.000000,0.000000,-0.030534,-4.498913,-18.522310,219.690261
135966,55.591068,37.672527,0.787100,-0.605506,-0.502880,-3.434482,-0.492008,8.820240,0.015267,0.000000,-0.030534,-4.296307,-18.733329,219.687210
136066,55.591068,37.672527,0.787100,-0.605506,-0.502880,-3.445256,-0.497994,8.212112,0.000000,-0.015267,-0.045802,-4.266947,-19.025415,219.682632
136166,55.591068,37.672527,0.787100,-0.605506,-0.502880,-3.549404,-0.562637,8.815451,-0.061069,-0.015267,-0.030534,-4.284574,-19.213300,219.679580
136266,55.591068,37.672527,0.787100,-0.605506,-0.502880,-3.369839,-0.940921,8.402451,0.015267,0.000000,-0.015267,-4.527750,-19.396774,219.678054
136366,55.591068,37.672527,0.787100,-0.605506,-0.502880,-3.420117,-0.872686,8.711303,0.030534,-0.015267,-0.015267,-4.567041,-19.531284,219.676528
136466,55.591068,37.672527,0.787100,-0.605506,-0.502880,-3.078943,-0.732626,8.771159,0.015267,0.000000,-0.015267,-4.476147,-19.498666,219.675003
136566,55.591068,37.672527,0.787100,-0.605506,-0.502880,-2.929306,-0.605733,8.633492,0.000000,-0.015267,-0.015267,-4.426562,-19.424009,219.673477
136666,55.591068,37.672527,0.787100,-0.605506,-0.502880,-2.832341,-0.465672,8.895657,-0.045802,-0.015267,-0.030534,-4.329890,-19.227766,219.670425
136766,55.591068,37.672527,0.787100,-0.605506,-0.502880,-37.621288,-18.899827,-18.055871,313.480926,432.259552,-247.251907,-40.315971,6.156881,194.945236
136866,55.591068,37.672527,0.787100,-0.605506,-0.502880,-2.499547,-0.475249,8.789114,0.000000,-0.030534,-0.015267,-4.111368,-18.556610,194.943710
136966,55.591068,37.672527,0.787100,-0.605506,-0.502880,-2.539051,-0.555455,8.945935,0.000000,-0.015267,-0.015267,-3.996901,-18.346076,194.942184
137066,55.591068,37.672527,0.787100,-0.605506,-0.502880,-2.644396,-0.598550,8.827423,0.000000,0.000000,-0.015267,-3.977732,-18.138793,194.940658
137166,55.591068,37.672527,0.787100,-0.605506,-0.502880,-2.598906,-0.687136,8.519767,-0.030534,0.000000,-0.015267,-4.124265,-18.022748,194.939132
137266,55.591068,37.672527,0.787100,-0.605506,-0.502880,-2.710236,-0.755371,8.717288,0.000000,0.015267,0.000000,-4.337902,-18.051073,194.939132
137472,55.591068,37.672527,0.787100,-0.605506,-0.502880,-2.740164,-0.735020,8.695741,0.030534,0.000000,0.000000,-4.414583,-18.074842,194.939132
137572,55.591068,37.672527,0.787100,-0.605506,-0.502880,-2.952051,-0.661997,9.089588,0.000000,-0.015267,0.000000,-4.286316,-17.990596,194.939132
137672,55.591068,37.672527,0.787100,-0.605506,-0.502880,-2.800019,-0.614113,8.766370,-0.015267,-0.045802,0.000000,-4.291244,-17.811744,194.939132
137772,55.591068,37.672527,0.787100,-0.605506,-0.502880,-2.740164,-0.835576,8.978257,-0.076336,0.000000,-0.015267,-4.362365,-17.765628,194.937606
137872,55.591068,37.672527,0.787100,-0.605506,-0.502880,-2.834735,-0.776918,8.787918,0.015267,0.015267,0.000000,-4.529944,-17.925649,194.937606
137972,55.591068,37.672527,0.787100,-0.605506,-0.502880,-2.797625,-0.770933,8.675391,0.015267,0.015267,0.000000,-4.527354,-18.081947,194.937606
138072,55.591068,37.672527,0.787100,-0.605506,-0.502880,-2.868254,-0.538695,8.846576,-0.015267,0.000000,0.000000,-4.467494,-18.079748,194.937606
138172,55.591068,37.672527,0.787100,-0.605506,-0.502880,-2.764106,-0.608127,8.671799,0.015267,-0.030534,0.000000,-4.346507,-17.957099,194.937606
138272,55.591068,37.672527,0.787100,-0.605506,-0.502880,-2.725799,-0.492008,8.429985,0.045802,-0.015267,-0.015267,-4.195808,-17.832939,194.936080
138372,55.591068,37.672527,0.787100,-0.605506,-0.502880,-2.728193,-0.627281,8.734048,0.000000,0.015267,-0.030534,-4.141605,-17.726160,194.933029
138472,55.591068,37.672527,0.787100,-0.605506,-0.502880,-2.814384,-0.470461,8.953118,-0.015267,0.015267,-0.015267,-4.099082,-17.754648,194.931503
138572,55.591068,37.672527,0.787100,-0.605506,-0.502880,-2.676717,-0.701501,8.932767,0.000000,0.000000,0.000000,-4.085345,-17.805376,194.931503
138672,55.591068,37.672527,0.787100,-0.605506,-0.502880,-2.674323,-0.555455,8.382101,0.000000,0.015267,-0.030534,-3.981259,-17.970581,194.928451
138772,55.591068,37.672527,0.787100,-0.605506,-0.502880,-2.889801,-0.466869,9.244013,-0.076336,0.000000,-0.030534,-3.779406,-18.089689,194.925399
138872,55.591068,37.672527,0.787100,-0.605506,-0.502880,-2.929306,-0.415394,8.808268,0.015267,-0.015267,-0.015267,-3.734802,-18.043891,194.923873
138972,55.591068,37.672527,0.787100,-0.605506,-0.502880,-2.853888,-0.547075,8.848970,-0.015267,-0.015267,-0.015267,-3.690759,-17.997200,194.922348
139072,55.591068,37.672527,0.787100,-0.605506,-0.502880,-2.858677,-0.547075,8.767567,0.015267,-0.015267,-0.015267,-3.696926,-17.939838,194.920822
139172,55.591068,37.672527,0.787100,-0.605506,-0.502880,-2.837129,-0.689530,9.016564,-0.015267,-0.030534,0.000000,-3.792605,-17.885498,194.920822
139272,55.591068,37.672527,0.787100,-0.605506,-0.502880,-2.644396,-0.815226,8.591593,0.000000,-0.045802,-0.015267,-3.924551,-17.826753,194.919296
139478,55.591068,37.672527,0.787100,-0.605506,-0.502880,-2.753332,-0.700304,9.088390,-0.030534,-0.015267,0.000000,-3.986414,-17.594482,194.919296
139578,55.591068,37.672527,0.787100,-0.605506,-0.502880,-2.728193,-0.830788,8.908825,-0.030534,-0.015267,-0.015267,-4.101437,-17.591930,194.917770
139678,55.591068,37.672527,0.787100,-0.605506,-0.502880,-2.609680,-0.672771,8.488642,-0.015267,-0.015267,-0.015267,-4.167057,-17.635709,194.916244
139778,55.591068,37.672527,0.787100,-0.605506,-0.502880,-2.800019,-0.588974,8.955512,0.000000,0.000000,0.000000,-4.088052,-17.615039,194.916244
139878,55.591068,37.672527,0.787100,-0.605506,-0.502880,-2.731784,-0.697910,8.831013,0.015267,-0.015267,0.000000,-4.179089,-17.533773,194.916244
139978,55.591068,37.672527,0.787100,-0.605506,-0.502880,-2.667141,-0.671574,8.756793,-0.045802,-0.030534,-0.015267,-4.274821,-17.451330,194.914718
140078,55.591068,37.672527,0.787100,-0.605506,-0.502880,-2.682703,-0.623690,8.754399,-0.015267,-0.030534,-0.015267,-4.348301,-17.349576,194.913192
140178,55.591068,37.672527,0.787100,-0.605506,-0.502880,-2.616863,-0.725443,8.803480,0.000000,-0.015267,0.000000,-4.382242,-17.259597,194.913192
140278,55.591068,37.672527,0.787100,-0.605506,-0.502880,-2.725799,-0.667982,9.121909,-0.030534,0.000000,-0.015267,-4.316061,-17.242547,194.911666
140378,55.591068,37.672527,0.787100,-0.605506,-0.502880,-2.638410,-0.621295,8.592790,-0.015267,0.000000,0.000000,-4.422877,-17.294775,194.911666
140478,55.591068,37.672527,0.787100,-0.605506,-0.502880,-2.659958,-0.745794,8.754399,0.015267,-0.015267,0.000000,-4.416614,-17.320739,194.911666
140578,55.591068,37.672527,0.787100,-0.605506,-0.502880,-2.828749,-0.618901,9.054871,-0.061069,0.000000,-0.015267,-4.420167,-17.305387,194.910140
140678,55.591068,37.672527,0.787100,-0.605506,-0.502880,-2.620454,-0.726640,8.899249,0.015267,-0.015267,0.015267,-4.396463,-17.246988,194.911666
140778,55.591068,37.672527,0.787100,-0.605506,-0.502880,-2.626439,-0.598550,8.978257,-0.030534,-0.015267,-0.015267,-4.376125,-17.223423,194.910140
140878,55.591068,37.672527,0.787100,-0.605506,-0.502880,-2.662352,-0.610521,8.659828,0.015267,-0.015267,0.000000,-4.375704,-17.253139,194.910140
140978,55.591068,37.672527,0.787100,-0.605506,-0.502880,-2.722207,-0.515950,8.932767,-0.106870,-0.015267,-0.015267,-4.319644,-17.259971,194.908615
141078,55.591068,37.672527,0.787100,-0.605506,-0.502880,-2.680309,-0.687136,8.761582,0.000000,0.000000,-0.015267,-4.293795,-17.178438,194.907089
141178,55.591068,37.672527,0.787100,-0.605506,-0.502880,-2.710236,-0.658405,8.997410,-0.015267,0.000000,-0.015267,-4.198046,-17.105888,194.905563
141278,55.591068,37.672527,0.787100,-0.605506,-0.502880,-2.624045,-0.664391,8.495825,0.030534,-0.015267,0.000000,-4.142252,-17.076196,194.905563
141378,55.591068,37.672527,0.787100,-0.605506,-0.502880,-2.554613,-0.610521,8.522161,0.000000,-0.015267,-0.015267,-4.041944,-17.058000,194.904037
141568,55.591068,37.672527,0.787100,-0.605506,-0.502880,-2.631228,-0.335188,8.795101,-0.015267,-0.015267,0.000000,-3.937333,-16.925569,194.904037
141668,55.591068,37.672527,0.787100,-0.605506,-0.502880,-2.619257,-0.627281,8.696938,0.015267,0.000000,0.000000,-3.909323,-16.969280,194.904037
141768,55.591068,37.672527,0.787100,-0.605506,-0.502880,-2.415750,-0.559046,8.643069,0.015267,-0.015267,0.000000,-3.829814,-16.850162,194.904037
141868,55.591068,37.672527,0.787100,-0.605506,-0.502880,-2.233790,-0.447716,9.069236,-0.015267,-0.015267,-0.015267,-3.732247,-16.532224,194.902511
141968,55.591068,37.672527,0.787100,-0.605506,-0.502880,-2.196680,-0.452504,9.269152,0.030534,-0.015267,0.000000,-3.596105,-16.200765,194.902511
142068,55.591068,37.672527,0.787100,-0.605506,-0.502880,-2.036268,-0.219069,9.080011,-0.015267,0.000000,-0.015267,-3.536792,-15.910276,194.900985
142168,55.591068,37.672527,0.787100,-0.605506,-0.502880,-1.935712,-0.430956,8.808268,0.000000,-0.015267,-0.015267,-3.404951,-15.767097,194.899459
142268,55.591068,37.672527,0.787100,-0.605506,-0.502880,-2.000355,-0.294487,9.279926,-0.015267,-0.015267,-0.030534,-3.261284,-15.535188,194.896408
142368,55.591068,37.672527,0.787100,-0.605506,-0.502880,-2.013524,-0.452504,9.109938,0.015267,-0.015267,-0.015267,-3.116853,-15.407757,194.894882
142468,55.591068,37.672527,0.787100,-0.605506,-0.502880,-2.009932,-0.136470,8.644266,0.000000,-0.015267,-0.015267,-3.069696,-15.292841,194.893356
142568,55.591068,37.672527,0.787100,-0.605506,-0.502880,-2.091335,-0.401029,9.234436,0.000000,-0.015267,-0.015267,-2.961189,-15.159965,194.891830
142668,55.591068,37.672527,0.787100,-0.605506,-0.502880,-2.158373,-0.343568,9.075222,-0.030534,0.000000,-0.015267,-3.045982,-15.049799,194.890304
142768,55.591068,37.672527,0.787100,-0.605506,-0.502880,-2.212242,-0.502782,9.194932,-0.015267,-0.015267,-0.015267,-3.128186,-14.990205,194.888778
142868,55.591068,37.672527,0.787100,-0.605506,-0.502880,-2.207454,-0.781707,8.980651,0.000000,-0.015267,0.000000,-3.295407,-14.914498,194.888778
142968,55.591068,37.672527,0.787100,-0.605506,-0.502880,-2.217031,-0.630872,9.083601,-0.015267,-0.015267,0.000000,-3.392055,-14.887242,194.888778
143068,55.591068,37.672527,0.787100,-0.605506,-0.502880,-2.169147,-0.646434,9.215283,-0.061069,-0.015267,0.000000,-3.527675,-14.814759,194.888778
143168,55.591068,37.672527,0.787100,-0.605506,-0.502880,-2.042254,-0.805649,8.857350,-0.015267,0.000000,0.000000,-3.746354,-14.809480,194.888778
143268,55.591068,37.672527,0.787100,-0.605506,-0.502880,-2.298434,-0.815226,9.119515,0.000000,0.000000,0.000000,-3.780428,-14.917049,194.888778
143368,55.591068,37.672527,0.787100,-0.605506,-0.502880,-2.685097,-0.830788,9.071631,-0.076336,-0.015267,0.000000,-3.902841,-15.112579,194.888778
143611,55.591068,37.672527,0.787100,-0.605506,-0.502880,-2.798822,-0.720655,8.510190,-0.030534,0.000000,0.000000,-4.259159,-15.416800,194.888778
143711,55.591068,37.672527,0.787100,-0.605506,-0.502880,-2.856283,-0.950498,8.871715,-0.045802,0.000000,0.000000,-4.435314,-15.493756,194.888778
143811,55.591068,37.672527,0.787100,-0.605506,-0.502880,-2.815581,-0.933739,8.595185,0.015267,-0.015267,0.000000,-4.536053,-15.682223,194.888778
143911,55.591068,37.672527,0.787100,-0.605506,-0.502880,-2.766500,-0.621295,8.930373,-0.015267,-0.015267,0.000000,-4.437390,-15.821991,194.888778
144011,55.591068,37.672527,0.787100,-0.605506,-0.502880,-2.841917,-0.776918,8.803480,0.000000,-0.015267,0.000000,-4.556059,-15.967375,194.888778
144111,55.591068,37.672527,0.787100,-0.605506,-0.502880,-2.920926,-0.745794,8.930373,-0.091603,-0.015267,-0.015267,-4.651748,-16.076856,194.887252
144211,55.591068,37.672527,0.787100,-0.605506,-0.502880,-2.889801,-0.940921,9.051280,0.045802,-0.015267,0.015267,-4.678270,-16.168333,194.888778
144311,55.591068,37.672527,0.787100,-0.605506,-0.502880,-3.038242,-0.861913,9.165004,-0.076336,0.000000,0.000000,-4.679527,-16.396284,194.888778
144411,55.591068,37.672527,0.787100,-0.605506,-0.502880,-2.788048,-0.811634,8.661026,-0.030534,0.015267,-0.015267,-4.748063,-16.616796,194.887252
144512,55.591068,37.672527,0.787100,-0.605506,-0.502880,-2.755726,-0.610521,8.346188,-0.015267,0.000000,0.000000,-4.708376,-16.782331,194.887252
144612,55.591068,37.672527,0.787100,-0.605506,-0.502880,-2.731784,-0.808043,8.676588,0.061069,-0.015267,0.000000,-4.640954,-16.791500,194.887252
144712,55.591068,37.672527,0.787100,-0.605506,-0.502880,-2.774880,-0.703895,8.711303,-0.015267,-0.030534,0.000000,-4.677527,-16.632413,194.887252
144812,55.591068,37.672527,0.787100,-0.605506,-0.502880,-2.747346,-0.669179,9.114727,0.000000,-0.015267,0.000000,-4.524752,-16.618215,194.887252
144912,55.591068,37.672527,0.787100,-0.605506,-0.502880,-2.762909,-0.532710,8.528147,0.015267,-0.015267,-0.015267,-4.444314,-16.711303,194.885726
145012,55.591068,37.672527,0.787100,-0.605506,-0.502880,-2.706645,-0.480037,8.549695,0.015267,-0.015267,-0.015267,-4.257555,-16.808877,194.884201
145112,55.591068,37.672527,0.787100,-0.605506,-0.502880,-2.777274,-0.416591,8.912416,-0.030534,-0.030534,-0.015267,-4.086349,-16.859399,194.882675
145212,55.591068,37.672527,0.787100,-0.605506,-0.502880,-2.861071,-0.450110,8.801086,-0.015267,-0.015267,-0.015267,-4.031924,-16.873849,194.881149
145312,55.591068,37.672527,0.787100,-0.605506,-0.502880,-2.778471,-0.719458,8.571243,0.030534,0.000000,0.015267,-4.011990,-16.947143,194.882675
145618,55.590415,37.672889,0.787100,-0.605506,-0.502880,-2.850297,-0.417788,9.162611,-0.015267,0.000000,-0.015267,-3.775619,-16.959327,194.878005
145718,55.590415,37.672889,0.787100,-0.605506,-0.502880,-2.746149,-0.379481,8.951921,0.030534,0.000000,-0.015267,-3.725152,-16.948026,194.876480
145818,55.590415,37.672889,0.787100,-0.605506,-0.502880,-2.686294,-0.701501,8.526949,0.000000,-0.015267,-0.015267,-3.867491,-16.977251,194.874954
145918,55.590415,37.672889,0.787100,-0.605506,-0.502880,-2.716222,-0.520739,9.036914,0.000000,0.015267,-0.015267,-3.800255,-17.002857,194.873428
146018,55.590415,37.672889,0.787100,-0.605506,-0.502880,-2.566584,-0.445322,8.728063,-0.015267,0.000000,-0.015267,-3.813911,-16.920518,194.871902
146118,55.590415,37.672889,0.787100,-0.605506,-0.502880,-2.608483,-0.530316,8.738837,0.000000,0.000000,-0.015267,-3.846457,-16.903163,194.870376
146219,55.590415,37.672889,0.787100,-0.605506,-0.502880,-2.591723,-0.559046,8.711303,0.000000,0.000000,-0.015267,-3.860955,-16.926094,194.868835
146319,55.590415,37.672889,0.787100,-0.605506,-0.502880,-2.663549,-0.539892,8.846576,-0.061069,-0.030534,-0.015267,-3.783852,-16.857172,194.867309
146419,55.590415,37.672889,0.787100,-0.605506,-0.502880,-2.747346,-0.538695,8.655039,0.030534,-0.030534,0.000000,-3.726705,-16.712511,194.867309
146519,55.590415,37.672889,0.787100,-0.605506,-0.502880,-2.595315,-0.575805,8.726865,-0.045802,-0.015267,-0.030534,-3.761246,-16.640680,194.864257
146619,55.590415,37.672889,0.787100,-0.605506,-0.502880,-2.578555,-0.614113,8.620324,0.000000,0.000000,-0.015267,-3.814697,-16.686967,194.862731
146719,55.590415,37.672889,0.787100,-0.605506,-0.502880,-2.698265,-0.550666,8.544906,-0.045802,-0.015267,-0.030534,-3.865637,-16.788551,194.859680
146819,55.590415,37.672889,0.787100,-0.605506,-0.502880,-2.722207,-0.647632,9.074025,0.045802,-0.015267,0.000000,-3.801643,-16.744419,194.859680
146919,55.590415,37.672889,0.787100,-0.605506,-0.502880,-2.758120,-0.587777,9.040506,-0.137405,0.000000,-0.015267,-3.888983,-16.814466,194.858154
147019,55.590415,37.672889,0.787100,-0.605506,-0.502880,-2.677915,-0.561440,8.335413,-0.106870,-0.076336,-0.045802,-4.073664,-16.827146,194.853576
147119,55.590415,37.672889,0.787100,-0.605506,-0.502880,-2.583344,-0.666785,8.646660,0.015267,-0.030534,0.000000,-3.987655,-16.867101,194.853576
147219,55.590415,37.672889,0.787100,-0.605506,-0.502880,-2.449268,-0.779313,8.747217,0.076336,-0.015267,0.000000,-3.792216,-16.782958,194.853576
147319,55.590415,37.672889,0.787100,-0.605506,-0.502880,-2.418144,-0.468066,9.062054,-0.091603,-0.015267,-0.030534,-3.656496,-16.657360,194.850524
147621,55.590274,37.672985,0.787100,-0.605506,-0.502880,-2.102109,-0.672771,8.900445,0.015267,-0.030534,0.000000,-3.703170,-15.795522,194.850524
147721,55.590274,37.672985,0.787100,-0.605506,-0.502880,-2.163161,-0.553061,8.678981,0.061069,-0.030534,0.015267,-3.588665,-15.526105,194.852050
147821,55.590274,37.672985,0.787100,-0.605506,-0.502880,-2.105700,-0.673968,8.675391,0.000000,0.000000,0.000000,-3.609905,-15.365575,194.852050
147921,55.590274,37.672985,0.787100,-0.605506,-0.502880,-2.008735,-0.460884,8.609550,0.000000,0.000000,0.000000,-3.478850,-15.216737,194.852050
148021,55.590274,37.672985,0.787100,-0.605506,-0.502880,-2.047042,-0.598550,9.342176,0.000000,0.000000,0.000000,-3.334355,-15.022726,194.852050
148121,55.590274,37.672985,0.787100,-0.605506,-0.502880,-2.036268,-0.410606,8.689756,0.000000,-0.015267,0.000000,-3.227064,-14.892607,194.852050
148221,55.590274,37.672985,0.787100,-0.605506,-0.502880,-2.098518,-0.116119,9.641450,-0.152672,-0.030534,-0.015267,-3.090761,-14.682070,194.850524
148321,55.590274,37.672985,0.787100,-0.605506,-0.502880,-1.740585,-0.421379,8.718486,0.061069,0.000000,-0.030534,-2.944557,-14.496868,194.847473
148421,55.590274,37.672985,0.787100,-0.605506,-0.502880,-1.622072,-0.141258,8.614338,0.045802,-0.015267,-0.015267,-2.651832,-14.290665,194.845947
148521,55.590274,37.672985,0.787100,-0.605506,-0.502880,-1.614889,0.172383,8.583213,-0.015267,-0.030534,-0.015267,-2.470768,-13.977765,194.844421
148621,55.590274,37.672985,0.787100,-0.605506,-0.502880,-1.399411,-0.453701,9.155427,-0.045802,0.000000,-0.030534,-2.507019,-13.441237,194.841369
148721,55.590274,37.672985,0.787100,-0.605506,-0.502880,-1.171962,-0.108936,9.360132,-0.030534,-0.015267,-0.015267,-2.361272,-12.917427,194.839843
148822,55.590274,37.672985,0.787100,-0.605506,-0.502880,-1.169568,-0.240617,9.461886,0.030534,0.000000,0.000000,-2.201964,-12.489034,194.839843
148922,55.590274,37.672985,0.787100,-0.605506,-0.502880,-1.261744,-0.323217,9.012972,-0.015267,-0.015267,0.000000,-2.296699,-12.272078,194.839843
149022,55.590274,37.672985,0.787100,-0.605506,-0.502880,-1.252167,-0.153229,8.836999,-0.015267,-0.015267,-0.015267,-2.307291,-11.928866,194.838317
149122,55.590274,37.672985,0.787100,-0.605506,-0.502880,-1.301249,-0.427365,9.144654,0.000000,-0.030534,0.000000,-2.321183,-11.470337,194.838317
149222,55.590274,37.672985,0.787100,-0.605506,-0.502880,-1.203086,-0.202310,9.603143,-0.152672,-0.030534,-0.015267,-2.302699,-11.013911,194.836791
149322,55.590274,37.672985,0.787100,-0.605506,-0.502880,-0.834379,-0.186748,9.224860,-0.015267,0.015267,-0.015267,-2.329796,-10.585073,194.835266
149422,55.590274,37.672985,0.787100,-0.605506,-0.502880,-0.871489,-0.360327,9.009382,0.000000,-0.030534,0.000000,-2.491008,-10.227279,194.835266
149565,55.590129,37.673076,0.787100,-0.605506,-0.502880,-0.934936,-0.351948,9.598355,0.061069,0.015267,0.000000,-2.545025,-9.828467,194.835266
149665,55.590129,37.673076,0.787100,-0.605506,-0.502880,-0.858321,-0.251391,9.611523,-0.137405,-0.015267,-0.015267,-2.592644,-9.533446,194.833740
149765,55.590129,37.673076,0.787100,-0.605506,-0.502880,-0.767342,-0.154426,9.077616,0.015267,-0.015267,0.000000,-2.548434,-9.251547,194.833740
149865,55.590129,37.673076,0.787100,-0.605506,-0.502880,-0.724246,-0.381875,9.621100,0.015267,0.015267,-0.015267,-2.411901,-8.913335,194.832214
149965,55.590129,37.673076,0.787100,-0.605506,-0.502880,-0.840365,-0.095768,9.544486,-0.030534,-0.015267,-0.015267,-2.369381,-8.547264,194.830688
150065,55.590129,37.673076,0.787100,-0.605506,-0.502880,-0.634463,-0.204704,9.052477,0.015267,-0.015267,-0.015267,-2.198210,-8.215604,194.829162
150165,55.590129,37.673076,0.787100,-0.605506,-0.502880,-0.806846,-0.034716,9.378088,0.030534,0.000000,-0.030534,-1.984653,-7.929565,194.826110
150265,55.590129,37.673076,0.787100,-0.605506,-0.502880,-0.715866,-0.202310,9.216480,0.000000,0.000000,-0.030534,-1.949983,-7.661646,194.823059
150365,55.590129,37.673076,0.787100,-0.605506,-0.502880,-0.978031,-0.124498,9.216480,-0.015267,-0.015267,-0.015267,-1.865528,-7.445580,194.821533
150465,55.590129,37.673076,0.787100,-0.605506,-0.502880,-0.914585,-0.112527,9.235633,-0.015267,0.000000,0.000000,-1.799067,-7.333424,194.821533
150565,55.590129,37.673076,0.787100,-0.605506,-0.502880,-0.839168,-0.197522,9.441534,-0.045802,0.000000,-0.015267,-1.791720,-7.263315,194.820007
150665,55.590129,37.673076,0.787100,-0.605506,-0.502880,-0.962469,-0.210690,9.386468,0.030534,0.000000,0.000000,-1.695951,-7.245891,194.820007
150765,55.590129,37.673076,0.787100,-0.605506,-0.502880,-1.108515,-0.326809,8.950723,-0.015267,-0.015267,-0.030534,-1.732539,-7.259109,194.816955
150865,55.590129,37.673076,0.787100,-0.605506,-0.502880,-1.326388,-0.201113,9.311051,-0.015267,-0.015267,-0.015267,-1.726443,-7.204470,194.815429
150965,55.590129,37.673076,0.787100,-0.605506,-0.502880,-1.046266,-0.325611,9.254787,-0.015267,-0.030534,0.015267,-1.807893,-7.027533,194.816955
151065,55.590129,37.673076,0.787100,-0.605506,-0.502880,-0.604536,-0.266953,9.370906,0.030534,0.000000,-0.015267,-1.746937,-6.890171,194.815429
151165,55.590129,37.673076,0.787100,-0.605506,-0.502880,-0.828394,-0.254982,9.410410,-0.015267,-0.015267,-0.030534,-1.679417,-6.817969,194.812377
151265,55.590129,37.673076,0.787100,-0.605506,-0.502880,-0.920571,-0.172383,9.269152,-0.030534,-0.015267,0.000000,-1.661766,-6.630464,194.812377
151470,55.590129,37.673076,0.787100,-0.605506,-0.502880,-0.916979,-0.213084,9.246407,-0.015267,-0.015267,0.000000,-1.505666,-6.541691,194.812377
151570,55.590129,37.673076,0.787100,-0.605506,-0.502880,-0.912191,-0.217872,9.238028,0.000000,-0.015267,0.000000,-1.518358,-6.590719,194.812377
151670,55.590129,37.673076,0.787100,-0.605506,-0.502880,-1.084573,-0.180762,9.436746,-0.015267,0.000000,-0.015267,-1.526247,-6.684424,194.810852
151770,55.590129,37.673076,0.787100,-0.605506,-0.502880,-1.443704,-0.418985,9.185356,0.000000,0.000000,-0.015267,-1.629736,-6.819793,194.809326
151870,55.590129,37.673076,0.787100,-0.605506,-0.502880,-1.449689,-0.495600,9.108741,0.015267,0.000000,0.015267,-1.651608,-7.002344,194.810852
151970,55.590129,37.673076,0.787100,-0.605506,-0.502880,-1.594538,-0.298078,9.232042,0.015267,0.015267,-0.030534,-1.597550,-7.297092,194.807800
152070,55.590129,37.673076,0.787100,-0.605506,-0.502880,-1.589750,-0.306458,8.832211,-0.015267,0.000000,0.000000,-1.651768,-7.464062,194.807800
152170,55.590129,37.673076,0.787100,-0.605506,-0.502880,-1.364695,-0.276530,9.352950,0.030534,0.000000,-0.015267,-1.675249,-7.636240,194.806274
152270,55.590129,37.673076,0.787100,-0.605506,-0.502880,-1.547851,-0.475249,8.984242,-0.015267,0.000000,0.015267,-1.795127,-7.712092,194.807800
152370,55.590129,37.673076,0.787100,-0.605506,-0.502880,-1.379060,-0.254982,9.090785,0.030534,0.000000,-0.030534,-1.814423,-7.909486,194.804748
152470,55.590129,37.673076,0.787100,-0.605506,-0.502880,-1.559822,-0.430956,9.229648,-0.061069,-0.015267,0.015267,-1.914963,-7.921302,194.806274
152570,55.590129,37.673076,0.787100,-0.605506,-0.502880,-1.340753,-0.379481,9.336190,0.045802,0.015267,-0.030534,-2.012701,-8.026412,194.803222
152670,55.590129,37.673076,0.787100,-0.605506,-0.502880,-1.314417,-0.465672,9.188946,-0.076336,-0.015267,0.015267,-2.115896,-8.068166,194.804748
152770,55.590129,37.673076,0.787100,-0.605506,-0.502880,-1.710657,-0.472855,8.984242,0.000000,0.015267,-0.030534,-2.207928,-8.308595,194.801696
152870,55.590129,37.673076,0.787100,-0.605506,-0.502880,-1.490391,-0.274136,9.350555,0.030534,0.000000,0.000000,-2.127257,-8.465356,194.801696
152970,55.590129,37.673076,0.787100,-0.605506,-0.502880,-1.607706,-0.450110,9.153034,-0.061069,0.000000,0.015267,-2.232716,-8.626873,194.803222
153070,55.590129,37.673076,0.787100,-0.605506,-0.502880,-2.078167,-0.459687,9.010579,-0.015267,0.000000,-0.015267,-2.342628,-8.930690,194.801696
153170,55.590129,37.673076,0.787100,-0.605506,-0.502880,-1.875857,-0.563834,9.026141,0.045802,0.000000,0.000000,-2.378089,-9.232539,194.801696
153270,55.590129,37.673076,0.787100,-0.605506,-0.502880,-1.788469,-0.561440,9.060856,-0.015267,0.000000,0.015267,-2.484094,-9.374089,194.803222
153370,55.590129,37.673076,0.787100,-0.605506,-0.502880,-1.784877,-0.450110,9.069236,0.061069,0.030534,-0.030534,-2.426535,-9.679596,194.800170
153558,55.590129,37.673076,0.787100,-0.605506,-0.502880,-2.054225,-0.541090,8.783129,-0.015267,0.000000,0.000000,-2.673763,-9.950297,194.800170
153658,55.590129,37.673076,0.787100,-0.605506,-0.502880,-1.869871,-0.610521,9.232042,0.000000,0.000000,0.000000,-2.732067,-10.186756,194.800170
153758,55.590129,37.673076,0.787100,-0.605506,-0.502880,-2.201468,-0.697910,8.912416,0.000000,0.000000,-0.030534,-2.894538,-10.495845,194.797119
153858,55.590129,37.673076,0.787100,-0.605506,-0.502880,-2.069787,-0.472855,9.127895,-0.091603,-0.030534,0.015267,-2.890224,-10.660955,194.798645
153958,55.590129,37.673076,0.787100,-0.605506,-0.502880,-1.978808,-0.466869,8.899249,0.000000,0.000000,-0.015267,-2.939822,-10.917779,194.797119
154058,55.590129,37.673076,0.787100,-0.605506,-0.502880,-2.076970,-0.506374,8.827423,-0.015267,0.000000,-0.015267,-3.010034,-11.026221,194.795593
154158,55.590129,37.673076,0.787100,-0.605506,-0.502880,-1.567005,-0.451307,9.340978,0.000000,0.000000,0.015267,-2.962339,-10.962917,194.797119
154258,55.590129,37.673076,0.787100,-0.605506,-0.502880,-1.732205,-0.483629,9.087193,-0.015267,0.015267,-0.030534,-3.048239,-10.921306,194.794067
154358,55.590129,37.673076,0.787100,-0.605506,-0.502880,-1.256956,-0.371101,9.283517,-0.030534,-0.015267,0.015267,-2.977430,-10.779061,194.795593
154458,55.590129,37.673076,0.787100,-0.605506,-0.502880,-1.672350,-0.405817,8.902839,0.000000,0.000000,0.000000,-2.946125,-10.726629,194.795593
154558,55.590129,37.673076,0.787100,-0.605506,-0.502880,-1.338359,-0.272939,9.289503,-0.045802,0.000000,-0.015267,-2.926890,-10.686794,194.794067
154658,55.590129,37.673076,0.787100,-0.605506,-0.502880,-1.564611,-0.500388,9.048886,-0.015267,-0.015267,0.015267,-3.011874,-10.635066,194.795593
154758,55.590129,37.673076,0.787100,-0.605506,-0.502880,-1.741782,-0.472855,9.212888,-0.015267,0.000000,-0.030534,-3.043212,-10.654030,194.792541
154858,55.590129,37.673076,0.787100,-0.605506,-0.502880,-1.385046,-0.414197,9.157822,0.000000,-0.015267,0.000000,-3.020689,-10.564964,194.792541
154958,55.590129,37.673076,0.787100,-0.605506,-0.502880,-1.871069,-0.521936,9.113530,-0.045802,-0.015267,0.015267,-2.950854,-10.653677,194.794067
155058,55.590129,37.673076,0.787100,-0.605506,-0.502880,-2.287660,-0.529119,8.795101,0.015267,0.000000,-0.015267,-2.965835,-10.902887,194.792541
155158,55.590129,37.673076,0.787100,-0.605506,-0.502880,-1.903390,-0.436942,9.160216,0.000000,0.000000,-0.015267,-2.865163,-11.060049,194.791015
155258,55.590129,37.673076,0.787100,-0.605506,-0.502880,-2.363077,-0.638055,8.914811,-0.045802,-0.015267,0.030534,-3.004663,-11.246500,194.794067
155358,55.590129,37.673076,0.787100,-0.605506,-0.502880,-2.543839,-0.606930,8.839393,0.030534,0.000000,-0.045802,-3.055948,-11.633472,194.789489
155643,55.590129,37.673076,0.787100,-0.605506,-0.502880,-2.166753,-0.533907,9.008184,0.061069,0.015267,-0.030534,-3.128295,-11.854831,194.780792
155743,55.590129,37.673076,0.787100,-0.605506,-0.502880,-1.851915,-0.426168,9.155427,-0.061069,-0.015267,0.015267,-3.088122,-11.856140,194.782318
155843,55.590129,37.673076,0.787100,-0.605506,-0.502880,-2.797625,-0.685939,8.832211,0.000000,-0.015267,0.000000,-3.217571,-12.228110,194.782318
155943,55.590129,37.673076,0.787100,-0.605506,-0.502880,-2.371457,-0.553061,9.004593,-0.015267,0.000000,-0.030534,-3.229639,-12.495926,194.779266
156043,55.590129,37.673076,0.787100,-0.605506,-0.502880,-2.358289,-0.579397,8.914811,-0.030534,-0.015267,0.015267,-3.273230,-12.674513,194.780792
156143,55.590129,37.673076,0.787100,-0.605506,-0.502880,-2.185906,-0.524330,8.835802,0.000000,-0.015267,-0.015267,-3.312296,-12.777582,194.779266
156243,55.590129,37.673076,0.787100,-0.605506,-0.502880,-1.432930,-0.363919,9.178173,0.030534,0.000000,-0.015267,-3.229823,-12.519410,194.777740
156343,55.590129,37.673076,0.787100,-0.605506,-0.502880,-1.549048,-0.411803,9.252393,-0.045802,-0.015267,0.015267,-3.192683,-12.257333,194.779266
156443,55.590129,37.673076,0.787100,-0.605506,-0.502880,-1.813608,-0.434548,9.045294,0.000000,0.000000,-0.030534,-3.203953,-12.152631,194.776214
156544,55.590129,37.673076,0.787100,-0.605506,-0.502880,-1.351527,-0.313640,9.216480,-0.030534,-0.015267,0.000000,-3.124303,-11.950640,194.776214
156644,55.590129,37.673076,0.787100,-0.605506,-0.502880,-1.758541,-0.450110,8.993819,-0.015267,-0.015267,0.015267,-3.125628,-11.812231,194.777740
156744,55.590129,37.673076,0.787100,-0.605506,-0.502880,-1.678335,-0.435745,9.108741,0.030534,0.000000,-0.030534,-3.065853,-11.743459,194.774688
156844,55.590129,37.673076,0.787100,-0.605506,-0.502880,-2.513912,-0.688333,8.992622,-0.015267,0.000000,0.015267,-3.094972,-11.903204,194.776214
156944,55.590129,37.673076,0.787100,-0.605506,-0.502880,-2.950854,-0.645237,8.842985,-0.015267,0.000000,-0.015267,-3.217675,-12.462183,194.774688
157044,55.590129,37.673076,0.787100,-0.605506,-0.502880,-2.201468,-0.550666,8.741230,-0.015267,-0.015267,-0.015267,-3.277824,-12.649101,194.773162
157144,55.590129,37.673076,0.787100,-0.605506,-0.502880,-2.585738,-0.739808,8.859744,0.000000,-0.015267,0.000000,-3.322850,-12.837198,194.773162
157244,55.590129,37.673076,0.787100,-0.605506,-0.502880,-2.711433,-0.598550,8.894460,0.000000,0.000000,-0.015267,-3.400159,-13.159317,194.771636
157344,55.590129,37.673076,0.787100,-0.605506,-0.502880,-2.381034,-0.635661,8.805874,-0.015267,-0.015267,0.000000,-3.451182,-13.291878,194.771636
157553,55.589824,37.673393,0.000000,0.000000,0.000000,-2.463634,-0.652420,8.842985,-0.015267,-0.015267,-0.015267,-3.537888,-13.707442,194.768447
157654,55.589824,37.673393,0.000000,0.000000,0.000000,-2.481590,-0.720655,8.805874,0.015267,-0.015267,0.000000,-3.582687,-13.835558,194.768447
157754,55.589824,37.673393,0.000000,0.000000,0.000000,-2.634819,-0.572214,8.896854,0.000000,0.000000,0.000000,-3.604171,-14.009834,194.768447
157854,55.589824,37.673393,0.000000,0.000000,0.000000,-2.513912,-0.651223,8.874109,-0.015267,-0.015267,-0.015267,-3.651694,-14.168212,194.766921
157954,55.589824,37.673393,0.000000,0.000000,0.000000,-2.467225,-0.696713,8.869320,0.000000,-0.015267,0.000000,-3.689971,-14.260952,194.766921
158054,55.589824,37.673393,0.000000,0.000000,0.000000,-2.592921,-0.545878,8.882489,-0.015267,0.000000,-0.015267,-3.700748,-14.415963,194.765396
158154,55.589824,37.673393,0.000000,0.000000,0.000000,-2.500744,-0.669179,8.836999,-0.015267,-0.030534,0.000000,-3.750011,-14.508776,194.765396
158254,55.589824,37.673393,0.000000,0.000000,0.000000,-2.561796,-0.635661,8.859744,0.000000,0.000000,0.000000,-3.778598,-14.603069,194.765396
158354,55.589824,37.673393,0.000000,0.000000,0.000000,-2.533065,-0.610521,8.862138,-0.015267,0.000000,-0.015267,-3.799436,-14.726737,194.763870
158454,55.589824,37.673393,0.000000,0.000000,0.000000,-2.466028,-0.703895,8.847773,0.000000,-0.015267,0.000000,-3.822570,-14.795892,194.763870
158554,55.589824,37.673393,0.000000,0.000000,0.000000,-2.612074,-0.585382,8.900445,0.000000,0.000000,-0.015267,-3.835833,-14.885801,194.762344
158654,55.589824,37.673393,0.000000,0.000000,0.000000,-2.487576,-0.632069,8.883686,-0.015267,-0.015267,0.000000,-3.859824,-14.963930,194.762344
158754,55.589824,37.673393,0.000000,0.000000,0.000000,-2.537854,-0.709881,8.825028,0.000000,-0.015267,0.000000,-3.895989,-15.008442,194.762344
158854,55.589824,37.673393,0.000000,0.000000,0.000000,-2.580950,-0.577003,8.906431,-0.015267,0.000000,-0.015267,-3.881018,-15.107991,194.760818
158954,55.589824,37.673393,0.000000,0.000000,0.000000,-2.480393,-0.654814,8.860941,-0.015267,-0.015267,0.000000,-3.913284,-15.147407,194.760818
159054,55.589824,37.673393,0.000000,0.000000,0.000000,-2.588132,-0.610521,8.864532,0.000000,0.000000,0.000000,-3.930017,-15.201576,194.760818
159154,55.589824,37.673393,0.000000,0.000000,0.000000,-2.542642,-0.603339,8.893262,-0.015267,0.000000,-0.015267,-3.924026,-15.282024,194.759292
159254,55.589824,37.673393,0.000000,0.000000,0.000000,-2.472013,-0.695516,8.853758,-0.015267,-0.015267,0.000000,-3.960098,-15.295486,194.759292
159354,55.589824,37.673393,0.000000,0.000000,0.000000,-2.618060,-0.612916,8.819043,0.000000,0.000000,0.000000,-3.971835,-15.365357,194.759292
159454,55.589633,37.673824,0.000000,0.000000,0.000000,-2.452860,-0.670376,8.884883,-0.015267,-0.015267,0.000000,-3.968910,-15.400262,194.759292
159571,55.589633,37.673824,0.000000,0.000000,0.000000,-2.583344,-0.578200,8.896854,-0.015267,0.000000,-0.015267,-3.971858,-15.470103,194.757507
159671,55.589633,37.673824,0.000000,0.000000,0.000000,-2.469619,-0.695516,8.851365,-0.015267,-0.015267,0.000000,-3.997433,-15.474120,194.757507
159771,55.589633,37.673824,0.000000,0.000000,0.000000,-2.622848,-0.596156,8.833408,0.000000,0.000000,-0.015267,-3.999660,-15.524384,194.755981
159872,55.589633,37.673824,0.000000,0.000000,0.000000,-2.495955,-0.635661,8.889672,-0.015267,-0.015267,-0.015267,-4.002013,-15.564006,194.754440
159972,55.589633,37.673824,0.000000,0.000000,0.000000,-2.499547,-0.724246,8.858547,0.000000,-0.015267,0.000000,-4.022702,-15.573089,194.754440
160072,55.589633,37.673824,0.000000,0.000000,0.000000,-2.618060,-0.551863,8.875307,-0.015267,0.000000,-0.015267,-4.014254,-15.633024,194.752914
160172,55.589633,37.673824,0.000000,0.000000,0.000000,-2.492364,-0.641646,8.886080,-0.015267,-0.015267,0.000000,-4.025677,-15.642930,194.752914
160272,55.589633,37.673824,0.000000,0.000000,0.000000,-2.547430,-0.676362,8.819043,0.000000,-0.015267,0.000000,-4.044985,-15.652392,194.752914
160372,55.589633,37.673824,0.000000,0.000000,0.000000,-2.530671,-0.593762,8.881292,0.000000,0.000000,-0.015267,-4.027393,-15.702508,194.751388
160472,55.589633,37.673824,0.000000,0.000000,0.000000,-2.475605,-0.705092,8.878897,-0.015267,-0.015267,0.000000,-4.046861,-15.692875,194.751388
160572,55.589633,37.673824,0.000000,0.000000,0.000000,-2.634819,-0.602142,8.847773,0.000000,0.000000,-0.015267,-4.058374,-15.742317,194.749862
160672,55.589633,37.673824,0.000000,0.000000,0.000000,-2.486378,-0.622492,8.931570,-0.030534,-0.015267,-0.015267,-4.054869,-15.746995,194.748336
160772,55.589633,37.673824,0.000000,0.000000,0.000000,-2.521094,-0.703895,8.816648,0.000000,-0.015267,0.000000,-4.084877,-15.746797,194.748336
160872,55.589633,37.673824,0.000000,0.000000,0.000000,-2.616863,-0.561440,8.844182,0.000000,0.000000,-0.015267,-4.055721,-15.797658,194.746810
160972,55.589633,37.673824,0.000000,0.000000,0.000000,-2.495955,-0.638055,8.927979,-0.015267,-0.015267,-0.015267,-4.062021,-15.792198,194.745285
161072,55.589633,37.673824,0.000000,0.000000,0.000000,-2.571372,-0.685939,8.817845,0.000000,-0.015267,0.000000,-4.096397,-15.796236,194.745285
161172,55.589633,37.673824,0.000000,0.000000,0.000000,-2.552219,-0.543484,8.905234,-0.015267,0.000000,-0.015267,-4.053201,-15.842345,194.743759
161272,55.589633,37.673824,0.000000,0.000000,0.000000,-2.444480,-0.717063,8.831013,-0.015267,-0.015267,0.000000,-4.096768,-15.806020,194.743759
161474,55.589633,37.673824,0.000000,0.000000,0.000000,-2.454057,-0.693121,8.842985,-0.015267,-0.015267,0.000000,-4.093883,-15.840925,194.743759
161574,55.589633,37.673824,0.000000,0.000000,0.000000,-2.493561,-0.687136,8.817845,0.000000,-0.015267,0.000000,-4.097380,-15.836244,194.743759
161674,55.589633,37.673824,0.000000,0.000000,0.000000,-2.637213,-0.572214,8.896854,-0.015267,0.000000,-0.015267,-4.074522,-15.881645,194.742233
161774,55.589633,37.673824,0.000000,0.000000,0.000000,-2.457648,-0.661997,8.888474,-0.030534,-0.015267,0.000000,-4.094496,-15.871147,194.742233
161874,55.589633,37.673824,0.000000,0.000000,0.000000,-2.582147,-0.657208,8.801086,0.015267,0.000000,0.000000,-4.098361,-15.876255,194.742233
161974,55.589633,37.673824,0.000000,0.000000,0.000000,-2.571372,-0.598550,8.919599,-0.015267,0.000000,-0.015267,-4.070228,-15.916935,194.740707
162074,55.589633,37.673824,0.000000,0.000000,0.000000,-2.503138,-0.726640,8.834605,-0.015267,-0.015267,0.000000,-4.113802,-15.880611,194.740707
162174,55.589633,37.673824,0.000000,0.000000,0.000000,-2.609680,-0.520739,8.910022,0.000000,0.015267,-0.015267,-4.075130,-15.911866,194.739181
162274,55.589633,37.673824,0.000000,0.000000,0.000000,-2.497152,-0.658405,8.872912,-0.015267,-0.015267,0.000000,-4.095477,-15.911156,194.739181
162374,55.589633,37.673824,0.000000,0.000000,0.000000,-2.549825,-0.679953,8.836999,0.015267,0.000000,0.000000,-4.105279,-15.901015,194.739181
162475,55.589633,37.673824,0.000000,0.000000,0.000000,-2.591723,-0.569820,8.908825,-0.015267,0.000000,-0.015267,-4.075870,-15.931433,194.737640
162575,55.589633,37.673824,0.000000,0.000000,0.000000,-2.489970,-0.684742,8.817845,-0.015267,-0.015267,0.000000,-4.105650,-15.910799,194.737640
162675,55.589633,37.673824,0.000000,0.000000,0.000000,-2.631228,-0.549469,8.874109,0.000000,0.000000,0.000000,-4.069186,-15.927109,194.737640
162775,55.589633,37.673824,0.000000,0.000000,0.000000,-2.451663,-0.629675,8.910022,-0.030534,-0.015267,-0.015267,-4.090946,-15.926008,194.736114
162875,55.589633,37.673824,0.000000,0.000000,0.000000,-2.580950,-0.767342,8.781932,0.015267,-0.015267,0.000000,-4.125867,-15.920745,194.736114
162975,55.589633,37.673824,0.000000,0.000000,0.000000,-2.580950,-0.544681,8.882489,-0.015267,0.000000,-0.015267,-4.081378,-15.956588,194.734588
163075,55.589633,37.673824,0.000000,0.000000,0.000000,-2.487576,-0.678756,8.850167,-0.015267,-0.015267,0.000000,-4.105890,-15.931243,194.734588
163175,55.589633,37.673824,0.000000,0.000000,0.000000,-2.576161,-0.603339,8.881292,0.000000,0.000000,0.000000,-4.089903,-15.936185,194.734588
163275,55.589633,37.673824,0.000000,0.000000,0.000000,-2.525883,-0.610521,8.913614,-0.030534,-0.015267,-0.015267,-4.101728,-15.955877,194.733062
163375,55.589633,37.673824,0.000000,0.000000,0.000000,-2.612074,-0.612916,8.807071,0.015267,0.000000,0.000000,-4.094673,-15.941774,194.733062
163563,55.589633,37.673824,0.000000,0.000000,0.000000,-2.580950,-0.591368,8.888474,-0.015267,0.000000,-0.015267,-4.097196,-15.970727,194.730194
163663,55.589633,37.673824,0.000000,0.000000,0.000000,-2.467225,-0.691924,8.853758,-0.015267,-0.015267,0.000000,-4.106260,-15.941024,194.730194
163763,55.589633,37.673824,0.000000,0.000000,0.000000,-2.626439,-0.566229,8.864532,0.000000,0.000000,-0.015267,-4.090507,-15.966408,194.728668
163863,55.589633,37.673824,0.000000,0.000000,0.000000,-2.500744,-0.624887,8.925584,-0.015267,-0.015267,0.000000,-4.096826,-15.960947,194.728668
163963,55.589633,37.673824,0.000000,0.000000,0.000000,-2.506729,-0.723049,8.814254,0.000000,-0.015267,0.000000,-4.119923,-15.935994,194.728668
164063,55.589633,37.673824,0.000000,0.000000,0.000000,-2.603694,-0.562637,8.857350,-0.015267,0.000000,-0.015267,-4.101965,-15.976319,194.727142
164163,55.589633,37.673824,0.000000,0.000000,0.000000,-2.468422,-0.658405,8.871715,-0.015267,-0.015267,0.000000,-4.101728,-15.955877,194.727142
164263,55.589633,37.673824,0.000000,0.000000,0.000000,-2.618060,-0.614113,8.854955,0.000000,0.000000,-0.015267,-4.100313,-15.956269,194.725616
164363,55.589633,37.673824,0.000000,0.000000,0.000000,-2.513912,-0.602142,8.932767,-0.015267,-0.015267,-0.015267,-4.086516,-15.971960,194.724090
164463,55.589633,37.673824,0.000000,0.000000,0.000000,-2.528277,-0.701501,8.817845,0.000000,-0.015267,0.000000,-4.110118,-15.946131,194.724090
164563,55.589633,37.673824,0.000000,0.000000,0.000000,-2.596512,-0.571017,8.866927,-0.015267,0.000000,-0.015267,-4.097063,-15.981389,194.722564
164663,55.589633,37.673824,0.000000,0.000000,0.000000,-2.461239,-0.687136,8.833408,-0.015267,-0.030534,0.000000,-4.105216,-15.951199,194.722564
164763,55.589633,37.673824,0.000000,0.000000,0.000000,-2.625242,-0.588974,8.877700,0.000000,0.000000,0.000000,-4.100313,-15.956269,194.722564
164864,55.589633,37.673824,0.000000,0.000000,0.000000,-2.504335,-0.628478,8.905234,-0.015267,-0.015267,-0.015267,-4.091789,-15.976675,194.721023
164964,55.589633,37.673824,0.000000,0.000000,0.000000,-2.489970,-0.720655,8.846576,0.000000,-0.015267,0.000000,-4.114651,-15.931281,194.721023
165064,55.589633,37.673824,0.000000,0.000000,0.000000,-2.607286,-0.548272,8.887277,0.000000,0.000000,-0.015267,-4.091789,-15.976675,194.719497
165164,55.589633,37.673824,0.000000,0.000000,0.000000,-2.464831,-0.672771,8.850167,-0.015267,-0.030534,0.000000,-4.089770,-15.946840,194.719497
165264,55.589633,37.673824,0.000000,0.000000,0.000000,-2.632425,-0.596156,8.872912,0.000000,0.000000,-0.015267,-4.090507,-15.966408,194.717971
165364,55.589633,37.673824,0.000000,0.000000,0.000000,-2.481590,-0.628478,8.898051,-0.015267,-0.015267,0.000000,-4.096322,-15.961824,194.717971
165500,55.589633,37.673824,0.000000,0.000000,0.000000,-2.606089,-0.585382,8.882489,0.000000,0.000000,0.000000,-4.079964,-15.956981,194.717971
165600,55.589633,37.673824,0.000000,0.000000,0.000000,-2.620454,-0.544681,8.895657,-0.015267,0.000000,-0.015267,-4.075429,-15.971832,194.716445
165700,55.589633,37.673824,0.000000,0.000000,0.000000,-2.482787,-0.677559,8.853758,-0.015267,-0.015267,0.000000,-4.105216,-15.951199,194.716445
165800,55.589633,37.673824,0.000000,0.000000,0.000000,-2.547430,-0.677559,8.827423,0.000000,-0.015267,0.000000,-4.109749,-15.936349,194.716445
165900,55.589633,37.673824,0.000000,0.000000,0.000000,-2.548628,-0.577003,8.880095,-0.015267,0.000000,-0.015267,-4.080332,-15.966762,194.714920
166000,55.589633,37.673824,0.000000,0.000000,0.000000,-2.462436,-0.735020,8.836999,0.000000,-0.015267,0.000000,-4.098664,-15.936221,194.714920
166100,55.589633,37.673824,0.000000,0.000000,0.000000,-2.619257,-0.560243,8.896854,0.000000,0.000000,-0.015267,-4.084732,-15.962570,194.713394
166200,55.589633,37.673824,0.000000,0.000000,0.000000,-2.501941,-0.646434,8.869320,-0.030534,-0.015267,0.000000,-4.094130,-15.951071,194.713394
166300,55.589633,37.673824,0.000000,0.000000,0.000000,-2.534262,-0.684742,8.809466,0.015267,0.000000,0.000000,-4.098162,-15.937099,194.713394
166400,55.589633,37.673824,0.000000,0.000000,0.000000,-2.588132,-0.584185,8.868124,-0.015267,0.000000,-0.015267,-4.085101,-15.972354,194.711868
166500,55.589633,37.673824,0.000000,0.000000,0.000000,-2.489970,-0.659603,8.877700,-0.015267,-0.015267,0.000000,-4.095041,-15.951558,194.711868
166600,55.589633,37.673824,0.000000,0.000000,0.000000,-2.573767,-0.646434,8.863335,0.000000,0.000000,0.000000,-4.093259,-15.942167,194.711868
166700,55.589633,37.673824,0.000000,0.000000,0.000000,-2.559401,-0.594959,8.890869,-0.015267,0.000000,-0.015267,-4.080197,-15.977422,194.710342
166800,55.589633,37.673824,0.000000,0.000000,0.000000,-2.470816,-0.723049,8.826225,0.000000,-0.015267,0.000000,-4.103065,-15.932027,194.710342
166900,55.589633,37.673824,0.000000,0.000000,0.000000,-2.606089,-0.559046,8.863335,0.000000,0.015267,-0.015267,-4.084557,-15.981652,194.708816
167000,55.589633,37.673824,0.000000,0.000000,0.000000,-2.479196,-0.648829,8.869320,-0.015267,-0.030534,0.000000,-4.088355,-15.947233,194.708816
167100,55.589633,37.673824,0.000000,0.000000,0.000000,-2.588132,-0.611719,8.859744,0.000000,0.000000,0.000000,-4.088355,-15.947233,194.708816
167200,55.589633,37.673824,0.000000,0.000000,0.000000,-2.537854,-0.605733,8.893262,-0.015267,-0.015267,-0.015267,-4.083821,-15.962087,194.707290
167300,55.589633,37.673824,0.000000,0.000000,0.000000,-2.476802,-0.730232,8.829816,0.000000,-0.015267,0.000000,-4.113239,-15.931674,194.707290
167511,55.589622,37.673839,0.000000,0.000000,0.000000,-2.601300,-0.611719,8.853758,0.000000,0.000000,0.000000,-4.097116,-15.947274,194.707290
167611,55.589622,37.673839,0.000000,0.000000,0.000000,-2.625242,-0.545878,8.886080,0.000000,0.000000,-0.015267,-4.092947,-15.971907,194.705764
167711,55.589622,37.673839,0.000000,0.000000,0.000000,-2.468422,-0.661997,8.875307,-0.030534,-0.015267,0.000000,-4.102522,-15.941329,194.705764
167811,55.589622,37.673839,0.000000,0.000000,0.000000,-2.596512,-0.634463,8.816648,0.000000,0.000000,0.000000,-4.106923,-15.937138,194.705764
167911,55.589622,37.673839,0.000000,0.000000,0.000000,-2.528277,-0.612916,8.882489,-0.015267,0.000000,-0.015267,-4.093492,-15.962608,194.704238
168011,55.589622,37.673839,0.000000,0.000000,0.000000,-2.474407,-0.720655,8.870518,0.000000,-0.015267,0.000000,-4.101652,-15.932421,194.704238
168111,55.589622,37.673839,0.000000,0.000000,0.000000,-2.618060,-0.557849,8.858547,-0.015267,0.000000,-0.015267,-4.092580,-15.962124,194.702713
168211,55.589622,37.673839,0.000000,0.000000,0.000000,-2.468422,-0.654814,8.890869,-0.015267,-0.015267,0.000000,-4.096748,-15.937490,194.702713
168311,55.589622,37.673839,0.000000,0.000000,0.000000,-2.604892,-0.647632,8.814254,0.000000,0.000000,0.000000,-4.105143,-15.927746,194.702713
168411,55.589622,37.673839,0.000000,0.000000,0.000000,-2.501941,-0.597353,8.908825,-0.015267,0.000000,-0.015267,-4.092212,-15.952340,194.701187
168511,55.589622,37.673839,0.000000,0.000000,0.000000,-2.479196,-0.727837,8.850167,0.000000,-0.015267,0.000000,-4.098597,-15.912766,194.701187
168611,55.589622,37.673839,0.000000,0.000000,0.000000,-2.614468,-0.543484,8.882489,-0.015267,0.000000,-0.015267,-4.085893,-15.957800,194.699661
168711,55.589622,37.673839,0.000000,0.000000,0.000000,-2.479196,-0.673968,8.880095,-0.015267,-0.015267,0.000000,-4.100240,-15.932814,194.699661
168811,55.589622,37.673839,0.000000,0.000000,0.000000,-2.553416,-0.679953,8.814254,0.000000,0.000000,0.000000,-4.119310,-15.921843,194.699661
168911,55.589622,37.673839,0.000000,0.000000,0.000000,-2.552219,-0.567426,8.876503,-0.015267,0.000000,-0.015267,-4.074303,-15.958543,194.698135
169011,55.589622,37.673839,0.000000,0.000000,0.000000,-2.460042,-0.701501,8.876503,-0.015267,-0.015267,0.000000,-4.094059,-15.927615,194.698135
169111,55.589622,37.673839,0.000000,0.000000,0.000000,-2.602497,-0.550666,8.844182,0.000000,0.000000,-0.015267,-4.084113,-15.948408,194.696609
169211,55.589622,37.673839,0.000000,0.000000,0.000000,-2.469619,-0.644040,8.918402,-0.030534,-0.015267,0.000000,-4.083885,-15.927968,194.696609
169311,55.589622,37.673839,0.000000,0.000000,0.000000,-2.613271,-0.639252,8.813056,0.000000,0.000000,0.000000,-4.103186,-15.937441,194.696609
169516,55.589622,37.673839,0.000000,0.000000,0.000000,-2.592921,-0.563834,8.912416,-0.015267,0.000000,-0.015267,-4.064128,-15.958895,194.693481
169616,55.589622,37.673839,0.000000,0.000000,0.000000,-2.521094,-0.612916,8.890869,-0.015267,-0.015267,-0.015267,-4.074303,-15.958543,194.691955
169716,55.589622,37.673839,0.000000,0.000000,0.000000,-2.476802,-0.724246,8.825028,0.000000,-0.015267,0.000000,-4.097551,-15.922940,194.691955
169816,55.589622,37.673839,0.000000,0.000000,0.000000,-2.638410,-0.561440,8.829816,0.000000,0.000000,-0.015267,-4.079208,-15.953477,194.690429
169916,55.589622,37.673839,0.000000,0.000000,0.000000,-2.464831,-0.664391,8.923191,-0.015267,-0.015267,0.000000,-4.072299,-15.928708,194.690429
170016,55.589622,37.673839,0.000000,0.000000,0.000000,-2.582147,-0.602142,8.825028,0.000000,0.000000,0.000000,-4.087742,-15.933075,194.690429
170116,55.589622,37.673839,0.000000,0.000000,0.000000,-2.481590,-0.602142,8.894460,-0.015267,-0.015267,-0.015267,-4.068667,-15.944045,194.688903
170216,55.589622,37.673839,0.000000,0.000000,0.000000,-2.519897,-0.725443,8.831013,0.000000,-0.015267,0.000000,-4.092281,-15.918225,194.688903
170316,55.589622,37.673839,0.000000,0.000000,0.000000,-2.636016,-0.548272,8.846576,0.000000,0.000000,-0.015267,-4.067982,-15.964001,194.687377
170416,55.589622,37.673839,0.000000,0.000000,0.000000,-2.481590,-0.657208,8.874109,-0.015267,-0.015267,0.000000,-4.072663,-15.938492,194.687377
170516,55.589622,37.673839,0.000000,0.000000,0.000000,-2.564190,-0.627281,8.859744,0.000000,0.000000,0.000000,-4.081060,-15.928749,194.687377
170616,55.589622,37.673839,0.000000,0.000000,0.000000,-2.511518,-0.612916,8.898051,-0.015267,0.000000,-0.015267,-4.063218,-15.958407,194.685852
170716,55.589622,37.673839,0.000000,0.000000,0.000000,-2.513912,-0.715866,8.827423,0.000000,-0.015267,0.000000,-4.091234,-15.928400,194.685852
170816,55.589622,37.673839,0.000000,0.000000,0.000000,-2.591723,-0.553061,8.841788,0.000000,0.000000,-0.015267,-4.057443,-15.954566,194.684326
170916,55.589622,37.673839,0.000000,0.000000,0.000000,-2.494758,-0.679953,8.894460,-0.030534,-0.015267,0.000000,-4.060711,-15.929450,194.684326
171016,55.589622,37.673839,0.000000,0.000000,0.000000,-2.584541,-0.585382,8.852561,0.000000,0.000000,-0.015267,-4.071249,-15.938883,194.682800
171116,55.589622,37.673839,0.000000,0.000000,0.000000,-2.510320,-0.608127,8.925584,-0.015267,-0.015267,-0.015267,-4.057079,-15.944785,194.681274
171216,55.589622,37.673839,0.000000,0.000000,0.000000,-2.500744,-0.723049,8.802283,0.000000,-0.015267,0.000000,-4.085965,-15.923683,194.681274
171316,55.589622,37.673839,0.000000,0.000000,0.000000,-2.638410,-0.572214,8.833408,0.000000,0.000000,-0.015267,-4.051122,-15.960022,194.679748
171416,55.589622,37.673839,0.000000,0.000000,0.000000,-2.509123,-0.690727,8.857350,0.000000,-0.015267,0.000000,-4.069977,-15.928615,194.679748
171573,55.589622,37.673835,0.000000,0.000000,0.000000,-2.499547,-0.617704,8.895657,-0.015267,0.000000,-0.015267,-4.061802,-15.958800,194.677352
171673,55.589622,37.673835,0.000000,0.000000,0.000000,-2.519897,-0.712275,8.829816,0.015267,-0.015267,0.000000,-4.074379,-15.924422,194.677352
171773,55.589622,37.673835,0.000000,0.000000,0.000000,-2.578555,-0.547075,8.918402,-0.015267,0.000000,-0.015267,-4.051484,-15.969805,194.675827
171873,55.589622,37.673835,0.000000,0.000000,0.000000,-2.481590,-0.697910,8.802283,-0.015267,-0.030534,0.000000,-4.084916,-15.933856,194.675827
171973,55.589622,37.673835,0.000000,0.000000,0.000000,-2.588132,-0.610521,8.863335,0.000000,0.000000,0.000000,-4.064930,-15.944338,194.675827
172073,55.589622,37.673835,0.000000,0.000000,0.000000,-2.529474,-0.604536,8.884883,-0.015267,-0.015267,-0.015267,-4.060386,-15.959189,194.674301
172173,55.589622,37.673835,0.000000,0.000000,0.000000,-2.466028,-0.701501,8.844182,0.000000,-0.015267,0.000000,-4.069473,-15.929487,194.674301
172273,55.589622,37.673835,0.000000,0.000000,0.000000,-2.630031,-0.544681,8.905234,-0.015267,0.000000,-0.015267,-4.049705,-15.960412,194.672775
172374,55.589622,37.673835,0.000000,0.000000,0.000000,-2.470816,-0.671574,8.863335,-0.030534,-0.015267,0.000000,-4.080373,-15.948706,194.672775
172474,55.589622,37.673835,0.000000,0.000000,0.000000,-2.586935,-0.658405,8.802283,0.015267,0.000000,0.000000,-4.074601,-15.944865,194.672775
172574,55.589622,37.673835,0.000000,0.000000,0.000000,-2.534262,-0.581791,8.918402,-0.015267,0.000000,-0.015267,-4.051847,-15.979589,194.671249
172674,55.589622,37.673835,0.000000,0.000000,0.000000,-2.446874,-0.727837,8.829816,0.000000,-0.015267,0.000000,-4.074742,-15.934205,194.671249
172774,55.589622,37.673835,0.000000,0.000000,0.000000,-2.618060,-0.538695,8.911219,-0.015267,0.000000,-0.015267,-4.055480,-15.964254,194.669723
172874,55.589622,37.673835,0.000000,0.000000,0.000000,-2.485181,-0.648829,8.865730,-0.015267,-0.015267,0.000000,-4.081284,-15.949193,194.669723
172974,55.589622,37.673835,0.000000,0.000000,0.000000,-2.537854,-0.693121,8.829816,0.000000,0.000000,0.000000,-4.084916,-15.933856,194.669723
173074,55.589622,37.673835,0.000000,0.000000,0.000000,-2.572570,-0.588974,8.868124,-0.015267,0.000000,-0.015267,-4.072199,-15.978889,194.668197
173174,55.589622,37.673835,0.000000,0.000000,0.000000,-2.462436,-0.702698,8.858547,0.000000,-0.015267,0.000000,-4.069836,-15.939272,194.668197
173274,55.589622,37.673835,0.000000,0.000000,0.000000,-2.610877,-0.542287,8.878897,-0.015267,0.000000,-0.015267,-4.059881,-15.960062,194.666671
173374,55.589622,37.673835,0.000000,0.000000,0.000000,-2.495955,-0.644040,8.881292,-0.015267,-0.015267,0.000000,-4.080373,-15.948706,194.666671
173661,55.589622,37.673835,0.000000,0.000000,0.000000,-2.536657,-0.632069,8.899249,0.000000,0.000000,-0.015267,-4.064025,-16.009073,194.662292
173761,55.589622,37.673835,0.000000,0.000000,0.000000,-2.677915,-0.726640,8.875307,-0.061069,-0.015267,0.015267,-4.100693,-16.029294,194.663818
173861,55.589622,37.673835,0.000000,0.000000,0.000000,-2.954445,-0.657208,8.687361,0.030534,0.015267,-0.015267,-4.117735,-16.174531,194.662292
173961,55.589622,37.673835,0.000000,0.000000,0.000000,-2.343924,-0.600945,8.981848,-0.030534,-0.015267,0.000000,-4.074754,-16.159751,194.662292
174061,55.589622,37.673835,0.000000,0.000000,0.000000,-2.911349,-0.696713,8.681376,-0.015267,0.000000,0.015267,-4.154363,-16.234298,194.663818
174161,55.589622,37.673835,0.000000,0.000000,0.000000,-2.442086,-0.565032,8.947133,0.030534,0.000000,-0.030534,-4.077183,-16.269990,194.660766
174261,55.589622,37.673835,0.000000,0.000000,0.000000,-2.663549,-0.712275,8.856153,-0.061069,-0.015267,0.015267,-4.135433,-16.234590,194.662292
174361,55.589622,37.673835,0.000000,0.000000,0.000000,-2.774880,-0.659603,8.737640,0.045802,0.015267,-0.045802,-4.125835,-16.330396,194.657714
174461,55.589622,37.673835,0.000000,0.000000,0.000000,-2.378639,-0.593762,9.004593,-0.045802,-0.015267,-0.061069,-4.083023,-16.304933,194.651611
174561,55.589622,37.673835,0.000000,0.000000,0.000000,-3.197456,-0.717063,8.632295,0.000000,-0.015267,0.015267,-4.167988,-16.511838,194.653137
174661,55.589622,37.673835,0.000000,0.000000,0.000000,-3.151967,-0.706290,8.797494,-0.030534,-0.015267,0.015267,-4.176567,-16.766147,194.654663
174761,55.589622,37.673835,0.000000,0.000000,0.000000,-3.289633,-0.776918,8.717288,-0.015267,0.015267,0.000000,-4.306498,-17.107837,194.654663
174861,55.589622,37.673835,0.000000,0.000000,0.000000,-3.312378,-0.877475,8.531738,0.015267,0.000000,0.000000,-4.418068,-17.439041,194.654663
174961,55.589622,37.673835,0.000000,0.000000,0.000000,-3.368642,-0.837971,8.693346,-0.015267,0.000000,-0.015267,-4.466852,-17.743986,194.653137
175062,55.589622,37.673835,0.000000,0.000000,0.000000,-3.418920,-0.799663,8.620324,-0.015267,0.000000,-0.015267,-4.554405,-18.036659,194.651596
175162,55.589622,37.673835,0.000000,0.000000,0.000000,-3.450045,-0.803255,8.615535,-0.015267,-0.015267,-0.015267,-4.604888,-18.296426,194.650070
175262,55.589622,37.673835,0.000000,0.000000,0.000000,-3.495534,-0.831985,8.526949,0.000000,-0.015267,-0.015267,-4.679370,-18.554582,194.648544
175362,55.589622,37.673835,0.000000,0.000000,0.000000,-3.482366,-0.799663,8.676588,-0.015267,-0.015267,-0.015267,-4.719124,-18.763933,194.647018
175462,55.589618,37.673828,0.000000,0.000000,0.000000,-3.388993,-0.853533,8.643069,0.000000,0.000000,-0.015267,-4.812349,-18.991489,194.645492
175578,55.589618,37.673828,0.000000,0.000000,0.000000,-3.445256,-0.787692,8.665814,-0.030534,-0.015267,-0.015267,-4.864565,-19.220497,194.643722
175678,55.589618,37.673828,0.000000,0.000000,0.000000,-3.429694,-0.808043,8.615535,-0.015267,-0.015267,-0.015267,-4.931650,-19.413789,194.642196
175778,55.589618,37.673828,0.000000,0.000000,0.000000,-3.263297,-0.706290,8.755596,-0.015267,0.000000,-0.015267,-4.936649,-19.514429,194.640670
175878,55.589618,37.673828,0.000000,0.000000,0.000000,-3.240552,-0.678756,8.653842,0.000000,0.000000,-0.015267,-4.945437,-19.603326,194.639144
175978,55.589618,37.673828,0.000000,0.000000,0.000000,-3.151967,-0.772130,8.640674,0.000000,-0.015267,-0.015267,-4.944143,-19.621873,194.637619
176078,55.589618,37.673828,0.000000,0.000000,0.000000,-3.114856,-0.796072,8.757990,-0.030534,0.000000,-0.015267,-4.981332,-19.593242,194.636093
176178,55.589618,37.673828,0.000000,0.000000,0.000000,-3.184288,-0.839168,8.668208,0.015267,0.000000,-0.015267,-5.006665,-19.639808,194.634567
176278,55.589618,37.673828,0.000000,0.000000,0.000000,-3.259706,-0.634463,8.831013,0.000000,0.000000,-0.015267,-4.954054,-19.728603,194.633041
176378,55.589618,37.673828,0.000000,0.000000,0.000000,-3.159149,-0.669179,8.625112,0.045802,0.000000,-0.030534,-4.799443,-19.838626,194.629989
176478,55.589618,37.673828,0.000000,0.000000,0.000000,-3.226187,-0.415394,8.477869,-0.015267,0.000000,-0.030534,-4.710086,-19.965835,194.626937
176578,55.589618,37.673828,0.000000,0.000000,0.000000,-3.209427,-0.598550,8.749610,-0.015267,0.015267,-0.030534,-4.719847,-20.001657,194.623886
176678,55.589618,37.673828,0.000000,0.000000,0.000000,-3.167529,-0.976834,8.588002,-0.030534,-0.015267,-0.030534,-5.012357,-20.001159,194.620834
176778,55.589618,37.673828,0.000000,0.000000,0.000000,-3.202245,-1.110910,8.543709,0.015267,-0.015267,-0.015267,-5.139528,-20.000804,194.619308
176878,55.589618,37.673828,0.000000,0.000000,0.000000,-3.264494,-0.931344,8.682573,-0.030534,-0.030534,0.000000,-5.198693,-19.949590,194.619308
176978,55.589618,37.673828,0.000000,0.000000,0.000000,-3.199851,-1.022324,8.713698,-0.015267,-0.015267,0.000000,-5.248079,-19.920864,194.619308
177078,55.589618,37.673828,0.000000,0.000000,0.000000,-3.153164,-1.107318,8.645462,0.000000,-0.015267,0.015267,-5.421202,-19.875972,194.620834
177178,55.589618,37.673828,0.000000,0.000000,0.000000,-3.082535,-1.130063,8.635886,-0.015267,-0.015267,0.015267,-5.501232,-19.829294,194.622360
177278,55.589618,37.673828,0.000000,0.000000,0.000000,-3.055001,-1.189918,8.785524,-0.015267,-0.015267,0.030534,-5.656730,-19.724559,194.625411
177378,55.589618,37.673828,0.000000,0.000000,0.000000,-2.970007,-1.367089,8.757990,-0.045802,-0.030534,0.045802,-5.875087,-19.566026,194.629989
177667,55.589618,37.673828,0.000000,0.000000,0.000000,-2.740164,-1.640028,8.908825,-0.045802,-0.015267,0.091603,-6.442458,-19.024806,194.656463
177767,55.589618,37.673828,0.000000,0.000000,0.000000,-2.844312,-1.607706,8.802283,-0.045802,-0.015267,0.122137,-6.595152,-18.920705,194.668670
177867,55.589618,37.673828,0.000000,0.000000,0.000000,-2.894590,-1.641225,8.643069,0.000000,-0.030534,0.152672,-6.765102,-18.942567,194.683944
177967,55.589618,37.673828,0.000000,0.000000,0.000000,-3.145981,-1.751358,8.598776,-0.076336,-0.015267,0.152672,-6.893918,-19.138170,194.699218
178067,55.589618,37.673828,0.000000,0.000000,0.000000,-3.283648,-1.813608,8.209718,-0.061069,-0.015267,0.152672,-7.206730,-19.455739,194.714492
178167,55.589618,37.673828,0.000000,0.000000,0.000000,-3.332729,-2.012326,8.556878,-0.045802,0.000000,0.183206,-7.476809,-19.733976,194.732818
178267,55.589618,37.673828,0.000000,0.000000,0.000000,-3.277662,-2.239776,8.652646,-0.076336,-0.015267,0.198473,-7.898101,-19.965621,194.752670
178367,55.589618,37.673828,0.000000,0.000000,0.000000,-3.197456,-2.371457,8.826225,-0.076336,0.000000,0.213740,-8.254093,-20.159933,194.774047
178467,55.589618,37.673828,0.000000,0.000000,0.000000,-2.978387,-2.335544,8.754399,-0.106870,0.000000,0.229008,-8.549079,-20.328781,194.796951
178567,55.589618,37.673828,0.000000,0.000000,0.000000,-2.954445,-2.437297,8.480263,-0.045802,-0.015267,0.259542,-8.782829,-20.507446,194.822906
178667,55.589618,37.673828,0.000000,0.000000,0.000000,-2.955642,-2.268506,8.591593,-0.091603,0.000000,0.259542,-8.935334,-20.701732,194.848861
178767,55.589618,37.673828,0.000000,0.000000,0.000000,-3.052607,-2.357092,8.585608,-0.045802,-0.015267,0.274809,-9.107073,-20.837039,194.876342
178867,55.589618,37.673828,0.000000,0.000000,0.000000,-2.919729,-2.407370,8.677784,-0.091603,-0.015267,0.259542,-9.413821,-20.910415,194.902297
178967,55.589618,37.673828,0.000000,0.000000,0.000000,-2.809596,-2.837129,8.850167,-0.061069,-0.030534,0.290076,-9.783460,-20.913576,194.931304
179067,55.589618,37.673828,0.000000,0.000000,0.000000,-2.644396,-2.934094,9.022549,-0.091603,-0.015267,0.305344,-10.063351,-20.877096,194.961837
179167,55.589618,37.673828,0.000000,0.000000,0.000000,-2.521094,-2.841917,8.718486,-0.091603,0.000000,0.320611,-10.208375,-20.966152,194.993896
179267,55.589618,37.673828,0.000000,0.000000,0.000000,-2.758120,-2.600103,8.608353,-0.076336,-0.015267,0.320611,-10.216629,-21.215988,195.025955
179367,55.589618,37.673828,0.000000,0.000000,0.000000,-2.932897,-2.488773,8.455123,-0.137405,-0.015267,0.305344,-10.415626,-21.462356,195.056488
179569,55.589557,37.673881,0.000000,0.000000,0.000000,-2.983175,-2.967613,8.732851,-0.091603,-0.015267,0.305344,-11.088835,-21.928691,195.118164
179670,55.589557,37.673881,0.000000,0.000000,0.000000,-2.938883,-3.118448,8.599973,-0.061069,-0.015267,0.320611,-11.405289,-22.067375,195.150543
179770,55.589557,37.673881,0.000000,0.000000,0.000000,-2.913743,-3.242946,8.966286,-0.106870,-0.015267,0.320611,-11.552522,-22.150630,195.182601
179870,55.589557,37.673881,0.000000,0.000000,0.000000,-2.865859,-3.026271,8.450335,-0.106870,-0.015267,0.320611,-11.756182,-22.367128,195.214660
179970,55.589557,37.673881,0.000000,0.000000,0.000000,-2.901772,-2.893393,8.711303,-0.137405,-0.030534,0.320611,-11.856126,-22.613857,195.246719
180070,55.589557,37.673881,0.000000,0.000000,0.000000,-2.844312,-3.465607,8.350976,-0.045802,-0.030534,0.320611,-12.214224,-22.746324,195.278778
180170,55.589557,37.673881,0.000000,0.000000,0.000000,-2.987964,-2.864662,9.091981,-0.167939,-0.030534,0.305344,-12.338582,-22.819087,195.309310
180270,55.589557,37.673881,0.000000,0.000000,0.000000,-2.819172,-3.222595,8.482657,-0.030534,-0.030534,0.320611,-12.558041,-22.888952,195.341369
180370,55.589557,37.673881,0.000000,0.000000,0.000000,-2.990358,-2.737770,9.008184,-0.167939,-0.030534,0.274809,-12.528461,-22.886636,195.368850
180470,55.589557,37.673881,0.000000,0.000000,0.000000,-2.864662,-2.713828,8.741230,-0.061069,-0.015267,0.259542,-12.515938,-22.971632,195.394805
180570,55.589557,37.673881,0.000000,0.000000,0.000000,-3.007117,-2.431312,8.615535,-0.015267,0.000000,0.244275,-12.327992,-23.095920,195.419235
180670,55.589557,37.673881,0.000000,0.000000,0.000000,-3.039439,-2.018312,9.203311,-0.167939,-0.015267,0.213740,-12.092491,-23.129663,195.440612
180770,55.589557,37.673881,0.000000,0.000000,0.000000,-2.853888,-2.747346,8.127119,0.000000,0.000000,0.213740,-12.255964,-23.217296,195.461990
180870,55.589557,37.673881,0.000000,0.000000,0.000000,-2.964022,-2.014721,8.489840,-0.091603,-0.015267,0.198473,-11.875502,-23.252607,195.481842
180970,55.589557,37.673881,0.000000,0.000000,0.000000,-3.110068,-1.829170,8.435970,-0.030534,-0.015267,0.167939,-11.569926,-23.181632,195.498641
181070,55.589557,37.673881,0.000000,0.000000,0.000000,-3.162740,-1.830367,9.165004,-0.076336,-0.015267,0.152672,-11.292253,-23.008190,195.513916
181170,55.589557,37.673881,0.000000,0.000000,0.000000,-2.946065,-1.600524,9.203311,-0.076336,-0.030534,0.137405,-11.203732,-22.638782,195.527648
181270,55.589557,37.673881,0.000000,0.000000,0.000000,-2.353500,-1.778892,7.985860,0.030534,0.000000,0.122137,-11.111549,-22.400648,195.539855
181370,55.589557,37.673881,0.000000,0.000000,0.000000,-2.736572,-1.286883,9.200918,-0.091603,-0.015267,0.106870,-10.607640,-22.313934,195.550537
181470,55.589553,37.674030,0.000000,0.000000,0.000000,-2.913743,-1.255759,9.232042,-0.030534,0.000000,0.106870,-10.210705,-22.118524,195.561218
181594,55.589553,37.674030,0.000000,0.000000,0.000000,-2.950854,-1.272518,8.999805,-0.030534,0.000000,0.091603,-10.075508,-22.006875,195.572570
181694,55.589553,37.674030,0.000000,0.000000,0.000000,-3.002329,-1.398214,8.661026,0.000000,0.000000,0.091603,-9.806075,-21.948337,195.581726
181794,55.589553,37.674030,0.000000,0.000000,0.000000,-3.165135,-0.639252,8.996213,-0.152672,-0.045802,0.061069,-9.336165,-21.895006,195.587829
181894,55.589553,37.674030,0.000000,0.000000,0.000000,-3.157952,-0.927753,8.444350,-0.061069,0.015267,0.000000,-8.938246,-21.936584,195.587829
181994,55.589553,37.674030,0.000000,0.000000,0.000000,-2.840720,-0.169988,8.148666,0.213740,0.030534,0.076336,-8.249370,-21.798309,195.595458
182094,55.589553,37.674030,0.000000,0.000000,0.000000,-3.263297,-0.181959,9.034521,0.000000,-0.030534,-0.030534,-7.617913,-21.670772,195.592407
182194,55.589553,37.674030,0.000000,0.000000,0.000000,-3.669114,0.304064,9.726445,-0.229008,-0.045802,-0.015267,-7.059726,-21.489223,195.590881
182294,55.589553,37.674030,0.000000,0.000000,0.000000,-3.224990,-1.100136,8.513782,-0.015267,-0.030534,-0.015267,-7.236945,-21.369331,195.589355
182394,55.589553,37.674030,0.000000,0.000000,0.000000,-3.324349,-0.222661,8.495825,0.000000,0.000000,0.000000,-6.800110,-21.444599,195.589355
182494,55.589553,37.674030,0.000000,0.000000,0.000000,-3.365051,-0.702698,9.045294,0.137405,0.015267,0.000000,-6.411844,-21.537288,195.589355
182594,55.589553,37.674030,0.000000,0.000000,0.000000,-3.308787,-0.325611,8.598776,-0.167939,-0.061069,-0.030534,-6.417074,-21.404373,195.586303
182694,55.589553,37.674030,0.000000,0.000000,0.000000,-3.245340,-0.652420,8.476672,0.259542,-0.030534,0.045802,-5.870650,-21.242132,195.590881
182794,55.589553,37.674030,0.000000,0.000000,0.000000,-3.415329,0.023942,9.182961,-0.198473,-0.030534,-0.015267,-5.576864,-21.004554,195.589355
182894,55.589553,37.674030,0.000000,0.000000,0.000000,-3.240552,-0.355539,8.564060,0.122137,0.015267,0.000000,-5.360416,-21.039852,195.589355
182994,55.589553,37.674030,0.000000,0.000000,0.000000,-3.187880,-0.240617,8.607155,-0.091603,0.045802,-0.030534,-5.352138,-21.181875,195.586303
183094,55.589553,37.674030,0.000000,0.000000,0.000000,-3.314772,-0.766144,8.828619,-0.091603,0.045802,-0.045802,-5.473373,-21.522615,195.581726
183194,55.589553,37.674030,0.000000,0.000000,0.000000,-3.450045,-0.539892,8.737640,0.015267,-0.015267,0.000000,-5.279173,-21.616720,195.581726
183294,55.589553,37.674030,0.000000,0.000000,0.000000,-3.209427,-0.322020,8.848970,-0.030534,-0.030534,-0.015267,-5.110780,-21.453666,195.580200
183394,55.589553,37.674030,0.000000,0.000000,0.000000,-3.166332,-0.568623,8.634689,0.045802,-0.030534,0.000000,-5.153573,-21.262065,195.580200
183664,55.589553,37.674030,0.000000,0.000000,0.000000,-3.044227,-0.593762,8.908825,-0.076336,-0.030534,-0.015267,-4.947121,-20.839790,195.576080
183764,55.589553,37.674030,0.000000,0.000000,0.000000,-3.172317,-0.550666,8.822633,-0.045802,0.000000,-0.015267,-4.877574,-20.714815,195.574554
183864,55.589553,37.674030,0.000000,0.000000,0.000000,-2.979584,-0.767342,8.500614,0.076336,0.000000,0.000000,-4.779443,-20.638208,195.574554
183964,55.589553,37.674030,0.000000,0.000000,0.000000,-3.098097,-0.204704,8.991425,-0.076336,0.000000,-0.015267,-4.532516,-20.592287,195.573028
184064,55.589553,37.674030,0.000000,0.000000,0.000000,-3.114856,-0.653617,8.809466,-0.030534,0.000000,0.000000,-4.637366,-20.558036,195.573028
184164,55.589553,37.674030,0.000000,0.000000,0.000000,-2.993949,-0.656011,8.734048,-0.030534,0.000000,-0.015267,-4.691075,-20.488321,195.571502
184264,55.589553,37.674030,0.000000,0.000000,0.000000,-3.058593,-0.362722,9.028535,-0.106870,-0.015267,-0.015267,-4.515335,-20.370391,195.569976
184364,55.589553,37.674030,0.000000,0.000000,0.000000,-3.108871,-0.507571,8.779538,-0.030534,0.015267,-0.030534,-4.541587,-20.300754,195.566925
184464,55.589553,37.674030,0.000000,0.000000,0.000000,-2.828749,-0.800860,8.420408,0.229008,0.030534,0.045802,-4.379739,-20.187965,195.571502
184564,55.589553,37.674030,0.000000,0.000000,0.000000,-2.980781,-0.587777,9.173384,0.030534,0.015267,0.000000,-4.073175,-20.161085,195.571502
184664,55.589553,37.674030,0.000000,0.000000,0.000000,-3.478775,0.143652,8.705318,-0.549618,-0.274809,-0.091603,-4.541018,-19.820133,195.562347
184764,55.589553,37.674030,0.000000,0.000000,0.000000,-2.936488,-0.940921,8.236054,0.137405,-0.030534,-0.015267,-4.407523,-19.775899,195.560821
184864,55.589553,37.674030,0.000000,0.000000,0.000000,-2.870648,-0.646434,8.506599,0.076336,0.000000,0.000000,-4.184758,-19.580039,195.560821
184964,55.589553,37.674030,0.000000,0.000000,0.000000,-3.081338,-0.310049,9.199721,-0.106870,-0.015267,-0.015267,-3.887986,-19.575183,195.559295
185064,55.589553,37.674030,0.000000,0.000000,0.000000,-2.906561,-0.840365,8.425196,0.076336,0.000000,0.000000,-4.043277,-19.505546,195.559295
185164,55.589553,37.674030,0.000000,0.000000,0.000000,-2.887407,-0.021548,9.391257,-0.137405,0.000000,-0.015267,-3.718438,-19.335491,195.557769
185264,55.589553,37.674030,0.000000,0.000000,0.000000,-2.665944,-0.817620,8.063672,0.091603,0.000000,0.015267,-3.921218,-19.251432,195.559295
185364,55.589553,37.674030,0.000000,0.000000,0.000000,-2.770091,-0.356736,8.974665,0.030534,0.000000,0.000000,-3.568927,-19.216711,195.559295
185567,55.589653,37.674415,0.000000,0.000000,0.000000,-2.580950,-0.763750,8.672996,0.106870,0.000000,0.015267,-3.622760,-18.632234,195.562393
185667,55.589653,37.674415,0.000000,0.000000,0.000000,-2.367866,-0.520739,8.802283,0.045802,-0.015267,0.015267,-3.616765,-18.259656,195.563919
185767,55.589653,37.674415,0.000000,0.000000,0.000000,-2.255338,-0.586579,8.809466,0.091603,0.000000,0.015267,-3.543791,-17.957473,195.565444
185867,55.589653,37.674415,0.000000,0.000000,0.000000,-2.189497,-0.201113,8.895657,-0.152672,-0.015267,-0.015267,-3.415232,-17.684690,195.563919
185967,55.589653,37.674415,0.000000,0.000000,0.000000,-2.291251,-0.529119,8.732851,0.061069,0.000000,0.000000,-3.376702,-17.418548,195.563919
186067,55.589653,37.674415,0.000000,0.000000,0.000000,-2.159570,-0.572214,8.835802,0.000000,-0.030534,0.030534,-3.259174,-17.130071,195.566970
186167,55.589653,37.674415,0.000000,0.000000,0.000000,-2.126051,-0.330400,8.757990,0.030534,-0.015267,0.000000,-3.139631,-16.884151,195.566970
186267,55.589653,37.674415,0.000000,0.000000,0.000000,-2.317587,-0.167594,9.269152,-0.045802,0.000000,0.000000,-2.979104,-16.659297,195.566970
186368,55.589653,37.674415,0.000000,0.000000,0.000000,-1.981202,-0.375890,8.971075,-0.106870,-0.015267,0.000000,-3.142984,-16.317655,195.566970
186468,55.589653,37.674415,0.000000,0.000000,0.000000,-2.151190,-0.422577,8.890869,0.106870,0.000000,0.015267,-2.909069,-16.161092,195.568496
186568,55.589653,37.674415,0.000000,0.000000,0.000000,-2.220622,-0.031125,9.550471,-0.183206,-0.030534,-0.015267,-2.748859,-15.885266,195.566970
186668,55.589653,37.674415,0.000000,0.000000,0.000000,-2.081758,-0.733823,8.415619,0.030534,-0.030534,0.015267,-3.063506,-15.610098,195.568496
186768,55.589653,37.674415,0.000000,0.000000,0.000000,-1.996764,-0.594959,8.822633,0.015267,-0.030534,0.015267,-2.866713,-15.356988,195.570022
186868,55.589653,37.674415,0.000000,0.000000,0.000000,-2.063802,-0.618901,9.248802,-0.122137,-0.030534,0.000000,-2.935195,-15.116663,195.570022
186968,55.589653,37.674415,0.000000,0.000000,0.000000,-1.922544,-1.024718,8.650251,-0.061069,-0.015267,0.015267,-3.429220,-14.896044,195.571548
187068,55.589653,37.674415,0.000000,0.000000,0.000000,-1.914164,-1.180341,8.602367,0.106870,-0.015267,0.061069,-3.653872,-14.709731,195.577651
187168,55.589653,37.674415,0.000000,0.000000,0.000000,-1.928529,-1.271321,9.317036,-0.076336,-0.015267,0.061069,-3.919539,-14.496576,195.583755
187268,55.589653,37.674415,0.000000,0.000000,0.000000,-1.844732,-1.640028,9.198523,-0.106870,-0.030534,0.076336,-4.441387,-14.220925,195.591384
187368,55.589653,37.674415,0.000000,0.000000,0.000000,-1.692701,-1.636437,9.154231,0.015267,0.000000,0.091603,-4.776253,-14.096764,195.600540
187474,55.589653,37.674415,0.000000,0.000000,0.000000,-1.503559,-2.240973,9.033324,-0.045802,-0.015267,0.106870,-5.729940,-13.735912,195.611862
187578,55.589653,37.674415,0.000000,0.000000,0.000000,-1.191115,-2.431312,9.624691,-0.122137,-0.045802,0.137405,-6.546000,-13.245418,195.626159
187678,55.589653,37.674415,0.000000,0.000000,0.000000,-1.329979,-2.718616,9.612720,0.076336,-0.061069,0.183206,-7.309376,-12.850144,195.644485
187778,55.589653,37.674415,0.000000,0.000000,0.000000,-0.908600,-2.823961,9.160216,-0.045802,-0.045802,0.167939,-8.279224,-12.435414,195.661285
187878,55.589653,37.674415,0.000000,0.000000,0.000000,-1.125275,-3.070564,9.521740,0.229008,0.015267,0.198473,-8.665555,-12.300633,195.681137
187978,55.589653,37.674415,0.000000,0.000000,0.000000,-1.337162,-2.132037,9.045294,-0.061069,0.015267,0.167939,-9.227212,-12.391108,195.697937
188078,55.589653,37.674415,0.000000,0.000000,0.000000,-0.781707,-3.250129,7.049727,0.198473,0.076336,0.183206,-10.554924,-12.326432,195.716262
188178,55.589653,37.674415,0.000000,0.000000,0.000000,-1.592144,-2.905364,8.506599,0.290076,-0.045802,0.229008,-10.654110,-12.187870,195.739166
188278,55.589653,37.674415,0.000000,0.000000,0.000000,-1.201889,-2.217031,9.141062,-0.015267,0.000000,0.167939,-10.618148,-11.827465,195.755966
188378,55.589653,37.674415,0.000000,0.000000,0.000000,-1.374272,-2.482787,8.791509,-0.076336,-0.030534,0.167939,-11.072147,-11.735914,195.772766
188478,55.589653,37.674415,0.000000,0.000000,0.000000,-1.572990,-2.172738,9.695321,-0.259542,0.000000,0.137405,-11.402962,-11.651569,195.786499
188578,55.589653,37.674415,0.000000,0.000000,0.000000,-1.387440,-2.715025,9.234436,0.076336,-0.015267,0.198473,-11.737195,-11.885923,195.806350
188678,55.589653,37.674415,0.000000,0.000000,0.000000,-1.355118,-2.497152,9.160216,0.045802,0.000000,0.137405,-11.897903,-12.144961,195.820083
188778,55.589653,37.674415,0.000000,0.000000,0.000000,-1.641225,-2.559401,9.139865,-0.137405,0.000000,0.137405,-12.502965,-12.179178,195.833816
188878,55.589653,37.674415,0.000000,0.000000,0.000000,-1.395820,-2.069787,8.802283,0.030534,0.000000,0.152672,-12.591641,-12.067734,195.849090
188978,55.589653,37.674415,0.000000,0.000000,0.000000,-1.363498,-2.440889,8.980651,-0.061069,-0.015267,0.167939,-12.859357,-12.072840,195.865890
189078,55.589653,37.674415,0.000000,0.000000,0.000000,-1.586159,-1.879448,9.439141,-0.152672,-0.015267,0.137405,-12.950372,-12.055397,195.879623
189178,55.589653,37.674415,0.000000,0.000000,0.000000,-1.418565,-2.254141,9.041703,0.015267,-0.015267,0.152672,-13.061606,-12.117840,195.894897
189278,55.589653,37.674415,0.000000,0.000000,0.000000,-1.568202,-2.094927,9.210494,-0.137405,0.000000,0.137405,-13.153699,-12.283762,195.908630
189378,55.589653,37.674415,0.000000,0.000000,0.000000,-1.523909,-2.233790,8.805874,-0.045802,-0.030534,0.137405,-13.410552,-12.372316,195.922363
189582,55.589805,37.674911,0.000000,0.000000,0.000000,-1.547851,-2.246958,9.459491,-0.091603,0.015267,0.122137,-13.591145,-12.325033,195.947280
189682,55.589805,37.674911,0.000000,0.000000,0.000000,-1.364695,-2.220622,9.030929,-0.137405,-0.015267,0.137405,-13.823131,-12.440909,195.961013
189782,55.589805,37.674911,0.000000,0.000000,0.000000,-1.577779,-2.321178,9.239225,0.000000,0.000000,0.152672,-13.847444,-12.555446,195.976287
189882,55.589805,37.674911,0.000000,0.000000,0.000000,-1.545457,-2.331953,9.327811,-0.045802,-0.015267,0.137405,-13.900588,-12.592552,195.990020
189982,55.589805,37.674911,0.000000,0.000000,0.000000,-1.519121,-2.223016,9.117120,-0.091603,-0.030534,0.137405,-14.072248,-12.688495,196.003753
190082,55.589805,37.674911,0.000000,0.000000,0.000000,-1.848324,-2.517503,9.105150,0.015267,0.015267,0.152672,-14.186430,-12.904205,196.019027
190182,55.589805,37.674911,0.000000,0.000000,0.000000,-1.751358,-2.280477,9.259575,-0.076336,0.000000,0.137405,-14.364040,-13.120240,196.032760
190282,55.589805,37.674911,0.000000,0.000000,0.000000,-1.881842,-2.576161,8.672996,0.015267,-0.015267,0.137405,-14.504132,-13.270215,196.046493
